cmd_roll_deg,cmd_pitch_deg,cmd_yaw_deg,accel_x_g,accel_y_g,accel_z_g,n_samples,timestamp
0.0,0.0,0.0,0.0164,0.0093,-0.9876,12,2026-08-01T14:31:37
0.5,0.0,0.0,0.0289,-0.0134,-0.9916,12,2026-08-01T14:31:38
1.0,0.0,0.0,-0.0515,0.0009,-1.0146,12,2026-08-01T14:31:38
1.5,0.0,0.0,0.0216,0.0241,-0.9865,12,2026-08-01T14:31:39
2.0,0.0,0.0,-0.0208,-0.0084,-0.9886,12,2026-08-01T14:31:39
2.5,0.0,0.0,-0.0176,-0.0097,-0.9860,12,2026-08-01T14:31:40
3.0,0.0,0.0,-0.0321,-0.0130,-0.9987,12,2026-08-01T14:31:40
3.5,0.0,0.0,-0.1381,-0.0283,-0.9818,12,2026-08-01T14:31:41
4.0,0.0,0.0,-0.0319,-0.0186,-0.9925,12,2026-08-01T14:31:42
4.5,0.0,0.0,0.0232,-0.0347,-0.9924,12,2026-08-01T14:31:42
5.0,0.0,0.0,-0.1016,-0.0332,-0.9986,12,2026-08-01T14:31:43
5.5,0.0,0.0,-0.0861,-0.0351,-0.9780,12,2026-08-01T14:31:43
6.0,0.0,0.0,-0.0616,-0.0568,-0.9827,12,2026-08-01T14:31:44
6.5,0.0,0.0,-0.1500,-0.0456,-0.9869,12,2026-08-01T14:31:44
7.0,0.0,0.0,-0.0566,-0.0473,-0.9780,12,2026-08-01T14:31:45
7.5,0.0,0.0,-0.0676,-0.0487,-0.9712,12,2026-08-01T14:31:45
8.0,0.0,0.0,-0.1501,-0.0516,-0.9790,12,2026-08-01T14:31:46
8.5,0.0,0.0,-0.1283,-0.1121,-0.9985,12,2026-08-01T14:31:47
9.0,0.0,0.0,-0.1352,-0.0590,-0.9775,12,2026-08-01T14:31:47
9.5,0.0,0.0,-0.1129,-0.1222,-0.9753,12,2026-08-01T14:31:48
10.0,0.0,0.0,-0.1198,-0.1027,-0.9884,12,2026-08-01T14:31:48
10.5,0.0,0.0,-0.1593,-0.0636,-0.9676,12,2026-08-01T14:31:49
11.0,0.0,0.0,-0.0945,0.0669,-0.9476,12,2026-08-01T14:31:49
11.5,0.0,0.0,-0.1748,-0.1328,-0.9703,12,2026-08-01T14:31:50
12.0,0.0,0.0,-0.1717,-0.0822,-0.9700,12,2026-08-01T14:31:51
0.5,0.1,0.0,-0.0174,-0.0016,-0.9886,12,2026-08-01T14:31:54
1.0,0.3,0.0,-0.1005,0.0121,-0.9876,12,2026-08-01T14:31:55
1.4,0.4,0.0,-0.0285,-0.0030,-0.9719,12,2026-08-01T14:31:55
1.9,0.5,0.0,-0.0129,-0.0049,-0.9884,12,2026-08-01T14:31:56
2.4,0.6,0.0,0.0490,0.0103,-0.9948,12,2026-08-01T14:31:56
2.9,0.8,0.0,0.0462,-0.0085,-0.9910,12,2026-08-01T14:31:57
3.4,0.9,0.0,-0.0632,0.0123,-0.9855,12,2026-08-01T14:31:57
3.9,1.0,0.0,-0.0463,-0.0116,-0.9849,12,2026-08-01T14:31:58
4.3,1.2,0.0,-0.0197,0.0001,-0.9830,12,2026-08-01T14:31:58
4.8,1.3,0.0,0.0195,-0.0316,-0.9939,12,2026-08-01T14:31:59
5.3,1.4,0.0,-0.1324,0.0217,-0.9728,12,2026-08-01T14:32:00
5.8,1.6,0.0,-0.0737,-0.0692,-0.9876,12,2026-08-01T14:32:00
6.3,1.7,0.0,-0.2037,-0.0350,-0.9833,12,2026-08-01T14:32:01
6.8,1.8,0.0,-0.1218,-0.0073,-0.9753,12,2026-08-01T14:32:01
7.2,1.9,0.0,-0.1186,0.0102,-0.9810,12,2026-08-01T14:32:02
7.7,2.1,0.0,-0.1250,-0.0249,-0.9793,12,2026-08-01T14:32:02
8.2,2.2,0.0,-0.1010,-0.0284,-0.9780,12,2026-08-01T14:32:03
8.7,2.3,0.0,-0.0671,0.0112,-0.9718,12,2026-08-01T14:32:03
9.2,2.5,0.0,-0.1751,-0.0903,-0.9830,12,2026-08-01T14:32:04
9.7,2.6,0.0,-0.0631,-0.1224,-0.9993,12,2026-08-01T14:32:04
10.1,2.7,0.0,-0.1817,-0.0422,-0.9633,12,2026-08-01T14:32:05
10.6,2.8,0.0,-0.1265,-0.0125,-0.9729,12,2026-08-01T14:32:06
11.1,3.0,0.0,-0.2128,-0.0206,-0.9751,12,2026-08-01T14:32:06
11.6,3.1,0.0,-0.2249,0.0061,-0.9758,12,2026-08-01T14:32:07
12.1,3.2,0.0,-0.2422,-0.0322,-0.9669,12,2026-08-01T14:32:07
12.6,3.4,0.0,-0.1049,-0.0884,-0.9663,12,2026-08-01T14:32:08
0.4,0.3,0.0,-0.0250,-0.0009,-0.9902,12,2026-08-01T14:32:11
0.9,0.5,0.0,-0.0030,0.0244,-0.9840,12,2026-08-01T14:32:12
1.3,0.8,0.0,-0.0240,0.0118,-0.9891,12,2026-08-01T14:32:12
1.7,1.0,0.0,-0.1226,0.0064,-0.9902,12,2026-08-01T14:32:13
2.2,1.2,0.0,-0.0221,0.0282,-0.9933,12,2026-08-01T14:32:13
2.6,1.5,0.0,-0.0488,0.0041,-0.9882,12,2026-08-01T14:32:14
3.0,1.7,0.0,-0.0595,0.0013,-0.9878,12,2026-08-01T14:32:14
3.5,2.0,0.0,-0.1054,0.0024,-0.9943,12,2026-08-01T14:32:15
3.9,2.2,0.0,-0.0861,0.0124,-0.9867,12,2026-08-01T14:32:15
4.3,2.5,0.0,-0.0665,0.0319,-0.9834,12,2026-08-01T14:32:16
4.8,2.7,0.0,-0.0806,0.0057,-0.9908,12,2026-08-01T14:32:17
5.2,3.0,0.0,-0.0812,0.0867,-0.9740,12,2026-08-01T14:32:17
5.6,3.2,0.0,-0.0944,-0.0070,-0.9817,12,2026-08-01T14:32:18
6.1,3.5,0.0,-0.1654,0.0274,-0.9846,12,2026-08-01T14:32:18
6.5,3.7,0.0,-0.1225,0.0140,-0.9932,12,2026-08-01T14:32:19
6.9,4.0,0.0,-0.1249,0.0116,-0.9787,12,2026-08-01T14:32:19
7.4,4.3,0.0,-0.1674,-0.0757,-0.9777,12,2026-08-01T14:32:20
7.8,4.5,0.0,-0.2010,-0.0019,-0.9805,12,2026-08-01T14:32:20
8.2,4.8,0.0,-0.1571,0.0258,-0.9752,12,2026-08-01T14:32:21
8.7,5.0,0.0,-0.2288,0.0409,-0.9873,12,2026-08-01T14:32:21
9.1,5.3,0.0,-0.1369,0.0192,-0.9707,12,2026-08-01T14:32:22
9.5,5.5,0.0,-0.1042,0.0025,-0.9633,12,2026-08-01T14:32:23
10.0,5.8,0.0,-0.1854,-0.0220,-0.9810,12,2026-08-01T14:32:23
10.4,6.0,0.0,-0.1784,-0.0112,-0.9751,12,2026-08-01T14:32:24
10.8,6.3,0.0,-0.1931,0.0269,-0.9760,12,2026-08-01T14:32:24
11.3,6.5,0.0,-0.2106,0.0135,-0.9591,12,2026-08-01T14:32:25
11.7,6.8,0.0,-0.1696,-0.0359,-0.9736,12,2026-08-01T14:32:25
12.1,7.0,0.0,-0.2412,0.0121,-0.9624,12,2026-08-01T14:32:26
12.6,7.3,0.0,-0.2159,-0.0103,-0.9758,12,2026-08-01T14:32:26
13.0,7.5,0.0,-0.2010,0.0148,-0.9603,12,2026-08-01T14:32:27
13.4,7.8,0.0,-0.1999,0.0073,-0.9384,12,2026-08-01T14:32:28
13.9,8.0,0.0,-0.2405,0.0431,-0.9294,12,2026-08-01T14:32:28
0.4,0.4,0.0,-0.0165,-0.0132,-0.9716,12,2026-08-01T14:32:31
0.7,0.7,0.0,-0.0315,0.0124,-0.9874,12,2026-08-01T14:32:32
1.1,1.1,0.0,-0.0149,0.0247,-0.9893,12,2026-08-01T14:32:33
1.4,1.4,0.0,-0.0230,0.0167,-1.0009,12,2026-08-01T14:32:33
1.8,1.8,0.0,-0.0680,0.0291,-0.9914,12,2026-08-01T14:32:34
2.1,2.1,0.0,-0.0415,0.0179,-0.9850,12,2026-08-01T14:32:34
2.5,2.5,0.0,-0.0739,0.0530,-0.9689,12,2026-08-01T14:32:35
2.8,2.8,0.0,-0.0409,0.0375,-0.9839,12,2026-08-01T14:32:35
3.2,3.2,0.0,-0.0544,0.0168,-0.9816,12,2026-08-01T14:32:36
3.5,3.5,0.0,-0.0772,0.0393,-0.9846,12,2026-08-01T14:32:36
3.9,3.9,0.0,-0.0783,0.0564,-0.9891,12,2026-08-01T14:32:37
4.2,4.2,0.0,-0.1321,0.0549,-0.9833,12,2026-08-01T14:32:38
4.6,4.6,0.0,0.0621,0.0104,-0.9802,12,2026-08-01T14:32:38
4.9,4.9,0.0,-0.0806,-0.0208,-0.9917,12,2026-08-01T14:32:39
5.3,5.3,0.0,-0.0872,0.0325,-0.9757,12,2026-08-01T14:32:39
5.7,5.7,0.0,-0.1193,0.0224,-0.9839,12,2026-08-01T14:32:40
6.0,6.0,0.0,-0.0628,0.1034,-0.9724,12,2026-08-01T14:32:40
6.4,6.4,0.0,-0.1542,0.0610,-0.9681,12,2026-08-01T14:32:41
6.7,6.7,0.0,-0.1343,0.0591,-0.9520,12,2026-08-01T14:32:41
7.1,7.1,0.0,-0.1377,0.0235,-0.9663,12,2026-08-01T14:32:42
7.4,7.4,0.0,-0.1496,0.0512,-0.9804,12,2026-08-01T14:32:43
7.8,7.8,0.0,-0.1632,0.0563,-0.9646,12,2026-08-01T14:32:43
8.1,8.1,0.0,-0.1277,0.1582,-0.9529,12,2026-08-01T14:32:44
8.5,8.5,0.0,-0.2013,0.0780,-0.9624,12,2026-08-01T14:32:44
8.8,8.8,0.0,-0.1752,0.0639,-0.9827,12,2026-08-01T14:32:45
9.2,9.2,0.0,-0.2300,0.0326,-0.9516,12,2026-08-01T14:32:45
9.5,9.5,0.0,-0.2940,0.0554,-0.9613,12,2026-08-01T14:32:46
0.2,0.4,0.0,-0.0229,0.0200,-0.9920,12,2026-08-01T14:32:49
0.5,0.9,0.0,-0.0225,0.0155,-0.9955,12,2026-08-01T14:32:50
0.7,1.3,0.0,-0.0168,0.0334,-1.0016,12,2026-08-01T14:32:50
1.0,1.7,0.0,0.0129,0.0104,-0.9867,12,2026-08-01T14:32:51
1.2,2.2,0.0,-0.0288,0.0310,-0.9851,12,2026-08-01T14:32:52
1.5,2.6,0.0,-0.0561,0.0364,-0.9929,12,2026-08-01T14:32:52
1.7,3.0,0.0,-0.0603,0.0335,-0.9847,12,2026-08-01T14:32:53
2.0,3.5,0.0,-0.0061,0.0792,-0.9837,12,2026-08-01T14:32:53
2.2,3.9,0.0,-0.0811,0.0294,-0.9890,12,2026-08-01T14:32:54
2.5,4.3,0.0,-0.0424,0.0385,-0.9924,12,2026-08-01T14:32:54
2.7,4.8,0.0,-0.0603,0.0481,-0.9824,12,2026-08-01T14:32:55
3.0,5.2,0.0,-0.0571,0.0553,-0.9849,12,2026-08-01T14:32:55
3.2,5.6,0.0,-0.0810,0.0411,-0.9885,12,2026-08-01T14:32:56
3.5,6.1,0.0,-0.0979,0.0621,-0.9751,12,2026-08-01T14:32:57
3.7,6.5,0.0,-0.1529,0.0752,-0.9736,12,2026-08-01T14:32:57
4.0,6.9,0.0,-0.1095,0.0860,-0.9886,12,2026-08-01T14:32:58
4.2,7.4,0.0,-0.0741,0.0617,-0.9786,12,2026-08-01T14:32:58
4.5,7.8,0.0,-0.1305,0.0638,-0.9713,12,2026-08-01T14:32:59
4.7,8.2,0.0,-0.1671,0.0647,-0.9872,12,2026-08-01T14:32:59
5.0,8.7,0.0,-0.1305,0.0776,-0.9618,12,2026-08-01T14:33:00
5.2,9.1,0.0,-0.1094,0.1003,-0.9716,12,2026-08-01T14:33:00
5.5,9.5,0.0,-0.2086,0.1142,-0.9688,12,2026-08-01T14:33:01
5.7,10.0,0.0,-0.0549,0.1198,-0.9743,12,2026-08-01T14:33:02
6.0,10.4,0.0,-0.1359,0.1055,-0.9836,12,2026-08-01T14:33:02
0.1,0.5,0.0,-0.0075,0.0134,-0.9889,12,2026-08-01T14:33:06
0.3,1.0,0.0,0.0052,0.0306,-0.9855,12,2026-08-01T14:33:06
0.4,1.4,0.0,-0.0030,0.0256,-0.9933,12,2026-08-01T14:33:07
0.5,1.9,0.0,0.0002,0.0371,-1.0001,12,2026-08-01T14:33:07
0.6,2.4,0.0,-0.0098,0.0324,-0.9904,12,2026-08-01T14:33:08
0.8,2.9,0.0,-0.1323,0.0431,-0.9812,12,2026-08-01T14:33:08
0.9,3.4,0.0,-0.0353,0.0431,-0.9880,12,2026-08-01T14:33:09
1.0,3.9,0.0,-0.0197,0.0520,-0.9776,12,2026-08-01T14:33:09
1.2,4.3,0.0,-0.0573,0.0573,-0.9901,12,2026-08-01T14:33:10
1.3,4.8,0.0,-0.0931,0.0514,-0.9885,12,2026-08-01T14:33:11
1.4,5.3,0.0,-0.0317,0.0653,-0.9835,12,2026-08-01T14:33:11
1.6,5.8,0.0,-0.0471,0.1465,-0.9960,12,2026-08-01T14:33:12
1.7,6.3,0.0,-0.0539,0.0780,-0.9770,12,2026-08-01T14:33:12
1.8,6.8,0.0,-0.0668,0.0387,-0.9791,12,2026-08-01T14:33:13
1.9,7.2,0.0,-0.0842,0.0657,-0.9772,12,2026-08-01T14:33:13
2.1,7.7,0.0,-0.0935,0.1006,-0.9844,12,2026-08-01T14:33:14
2.2,8.2,0.0,-0.0920,0.0924,-0.9781,12,2026-08-01T14:33:14
2.3,8.7,0.0,-0.0816,0.1091,-0.9657,12,2026-08-01T14:33:15
2.5,9.2,0.0,-0.1195,0.1471,-0.9750,12,2026-08-01T14:33:16
2.6,9.7,0.0,-0.0667,0.1687,-0.9390,12,2026-08-01T14:33:16
2.7,10.1,0.0,-0.0970,0.1322,-0.9752,12,2026-08-01T14:33:17
2.8,10.6,0.0,-0.1294,0.1263,-0.9685,12,2026-08-01T14:33:17
3.0,11.1,0.0,-0.1508,0.1706,-0.9548,12,2026-08-01T14:33:18
-0.0,0.5,0.0,0.0057,0.0120,-0.9871,12,2026-08-01T14:33:21
-0.0,1.0,0.0,-0.0103,0.0221,-0.9960,12,2026-08-01T14:33:22
-0.0,1.5,0.0,0.0040,0.0289,-0.9757,12,2026-08-01T14:33:22
-0.0,2.0,0.0,-0.0174,0.0356,-0.9888,12,2026-08-01T14:33:23
-0.0,2.5,0.0,-0.0739,0.0385,-0.9879,12,2026-08-01T14:33:24
-0.0,3.0,0.0,-0.0232,0.0432,-0.9841,12,2026-08-01T14:33:24
-0.0,3.5,0.0,-0.0216,0.0522,-1.0061,12,2026-08-01T14:33:25
-0.0,4.0,0.0,-0.0205,0.0554,-0.9802,12,2026-08-01T14:33:25
-0.0,4.5,0.0,0.0068,0.0747,-0.9933,12,2026-08-01T14:33:26
-0.0,5.0,0.0,-0.0291,0.0714,-0.9811,12,2026-08-01T14:33:26
-0.0,5.5,0.0,-0.0679,0.0774,-0.9874,12,2026-08-01T14:33:27
-0.0,6.0,0.0,-0.0417,0.0990,-0.9797,12,2026-08-01T14:33:27
-0.0,6.5,0.0,-0.0081,0.0962,-0.9774,12,2026-08-01T14:33:28
-0.0,7.0,0.0,-0.0156,0.1194,-0.9889,12,2026-08-01T14:33:29
-0.0,7.5,0.0,-0.0780,0.1136,-0.9851,12,2026-08-01T14:33:29
-0.0,8.0,0.0,-0.0503,0.0912,-0.9889,12,2026-08-01T14:33:30
-0.0,8.5,0.0,-0.0470,0.1295,-0.9762,12,2026-08-01T14:33:30
-0.0,9.0,0.0,-0.0924,0.1169,-0.9664,12,2026-08-01T14:33:31
-0.0,9.5,0.0,-0.0932,0.1396,-0.9696,12,2026-08-01T14:33:31
-0.0,10.0,0.0,-0.0831,0.1540,-0.9770,12,2026-08-01T14:33:32
-0.0,10.5,0.0,-0.0835,0.1632,-0.9627,12,2026-08-01T14:33:32
-0.0,11.0,0.0,-0.0228,0.1903,-0.9902,12,2026-08-01T14:33:33
-0.0,11.5,0.0,-0.1074,0.1533,-0.9528,12,2026-08-01T14:33:34
-0.0,12.0,0.0,-0.0676,0.1769,-0.9710,12,2026-08-01T14:33:34
-0.1,0.5,0.0,0.0055,0.0109,-0.9851,12,2026-08-01T14:33:38
-0.3,1.0,0.0,0.0037,0.0323,-0.9849,12,2026-08-01T14:33:39
-0.4,1.4,0.0,-0.0071,0.0058,-0.9845,12,2026-08-01T14:33:39
-0.5,1.9,0.0,-0.0136,0.0337,-0.9854,12,2026-08-01T14:33:40
-0.6,2.4,0.0,-0.0133,0.0369,-0.9903,12,2026-08-01T14:33:40
-0.8,2.9,0.0,-0.0225,0.0498,-0.9830,12,2026-08-01T14:33:41
-0.9,3.4,0.0,-0.0023,0.0632,-0.9843,12,2026-08-01T14:33:41
-1.0,3.9,0.0,-0.0090,0.0660,-0.9839,12,2026-08-01T14:33:42
-1.2,4.3,0.0,-0.0196,0.0570,-0.9873,12,2026-08-01T14:33:42
-1.3,4.8,0.0,-0.0154,0.0831,-0.9889,12,2026-08-01T14:33:43
-1.4,5.3,0.0,-0.0286,0.0874,-0.9911,12,2026-08-01T14:33:43
-1.6,5.8,0.0,-0.0415,0.1193,-0.9811,12,2026-08-01T14:33:44
-1.7,6.3,0.0,-0.0391,0.1222,-0.9840,12,2026-08-01T14:33:45
-1.8,6.8,0.0,-0.0180,0.1284,-0.9807,12,2026-08-01T14:33:45
-1.9,7.2,0.0,-0.0289,0.1494,-0.9837,12,2026-08-01T14:33:46
-2.1,7.7,0.0,0.0087,0.1129,-0.9703,12,2026-08-01T14:33:46
-2.2,8.2,0.0,-0.0428,0.1335,-0.9704,12,2026-08-01T14:33:47
-2.3,8.7,0.0,-0.0385,0.1513,-0.9705,12,2026-08-01T14:33:47
-2.5,9.2,0.0,-0.0236,0.1547,-0.9665,12,2026-08-01T14:33:48
-2.6,9.7,0.0,0.0210,0.1701,-0.9772,12,2026-08-01T14:33:49
-2.7,10.1,0.0,-0.0264,0.1724,-0.9772,12,2026-08-01T14:33:49
-2.8,10.6,0.0,-0.0231,0.1706,-0.9621,12,2026-08-01T14:33:50
-3.0,11.1,0.0,-0.0377,0.1839,-0.9701,12,2026-08-01T14:33:50
-0.3,0.4,0.0,-0.0085,0.0164,-0.9920,12,2026-08-01T14:33:53
-0.5,0.9,0.0,-0.0128,0.0296,-0.9894,12,2026-08-01T14:33:54
-0.8,1.3,0.0,0.1063,-0.0375,-0.9955,12,2026-08-01T14:33:54
-1.0,1.7,0.0,0.0022,0.0189,-0.9821,12,2026-08-01T14:33:55
-1.3,2.2,0.0,0.0325,0.0630,-0.9828,12,2026-08-01T14:33:56
-1.5,2.6,0.0,-0.0012,0.0524,-0.9835,12,2026-08-01T14:33:56
-1.8,3.0,0.0,-0.0065,0.0808,-0.9852,12,2026-08-01T14:33:57
-2.0,3.5,0.0,0.0052,0.0440,-0.9849,12,2026-08-01T14:33:57
-2.3,3.9,0.0,-0.0423,0.0878,-0.9874,12,2026-08-01T14:33:58
-2.5,4.3,0.0,0.0241,0.0802,-0.9828,12,2026-08-01T14:33:58
-2.8,4.8,0.0,0.0319,0.0636,-0.9767,12,2026-08-01T14:33:59
-3.0,5.2,0.0,0.0593,0.0845,-0.9820,12,2026-08-01T14:33:59
-3.3,5.6,0.0,0.0325,0.1115,-1.0084,12,2026-08-01T14:34:00
-3.5,6.1,0.0,-0.0142,0.1316,-0.9755,12,2026-08-01T14:34:01
-3.8,6.5,0.0,-0.0093,0.1790,-0.9749,12,2026-08-01T14:34:01
-4.0,6.9,0.0,0.0157,0.1462,-0.9894,12,2026-08-01T14:34:02
-4.3,7.4,0.0,0.0144,0.1583,-0.9768,12,2026-08-01T14:34:02
-4.5,7.8,0.0,0.0149,0.1503,-0.9779,12,2026-08-01T14:34:03
-4.8,8.2,0.0,-0.0288,0.1562,-0.9812,12,2026-08-01T14:34:03
-5.0,8.7,0.0,-0.0309,0.1562,-0.9744,12,2026-08-01T14:34:04
-5.3,9.1,0.0,0.0194,0.1730,-0.9735,12,2026-08-01T14:34:04
-5.5,9.5,0.0,-0.0017,0.1990,-0.9683,12,2026-08-01T14:34:05
-5.8,10.0,0.0,0.0135,0.1814,-0.9613,12,2026-08-01T14:34:06
-6.0,10.4,0.0,0.0184,0.2032,-0.9560,12,2026-08-01T14:34:06
-0.4,0.4,0.0,0.0089,0.0133,-0.9908,12,2026-08-01T14:34:09
-0.7,0.7,0.0,0.0466,0.0238,-0.9907,12,2026-08-01T14:34:10
-1.1,1.1,0.0,0.0258,0.0191,-0.9936,12,2026-08-01T14:34:10
-1.4,1.4,0.0,0.0660,0.0197,-0.9955,12,2026-08-01T14:34:11
-1.8,1.8,0.0,0.0185,0.0539,-1.0025,12,2026-08-01T14:34:12
-2.1,2.1,0.0,-0.0707,0.0609,-0.9900,12,2026-08-01T14:34:12
-2.5,2.5,0.0,0.1178,0.0483,-0.9847,12,2026-08-01T14:34:13
-2.8,2.8,0.0,-0.0344,0.1027,-0.9912,12,2026-08-01T14:34:13
-3.2,3.2,0.0,0.0120,0.0775,-0.9839,12,2026-08-01T14:34:14
-3.5,3.5,0.0,0.0161,0.0387,-1.0021,12,2026-08-01T14:34:14
-3.9,3.9,0.0,0.0118,0.0733,-0.9911,12,2026-08-01T14:34:15
-4.2,4.2,0.0,0.0334,0.0974,-0.9910,12,2026-08-01T14:34:15
-4.6,4.6,0.0,0.0553,0.1058,-0.9868,12,2026-08-01T14:34:16
-4.9,4.9,0.0,-0.0694,0.1064,-0.9784,12,2026-08-01T14:34:17
-5.3,5.3,0.0,-0.0431,0.1250,-0.9806,12,2026-08-01T14:34:17
-5.7,5.7,0.0,0.0706,0.1202,-0.9738,12,2026-08-01T14:34:18
-6.0,6.0,0.0,0.0664,0.0962,-0.9855,12,2026-08-01T14:34:18
-6.4,6.4,0.0,0.0476,0.1620,-0.9826,12,2026-08-01T14:34:19
-6.7,6.7,0.0,0.0476,0.1514,-0.9750,12,2026-08-01T14:34:19
-7.1,7.1,0.0,0.0197,0.1849,-0.9763,12,2026-08-01T14:34:20
-7.4,7.4,0.0,0.0284,0.1638,-0.9613,12,2026-08-01T14:34:20
-7.8,7.8,0.0,0.0636,0.1682,-0.9762,12,2026-08-01T14:34:21
-8.1,8.1,0.0,0.1278,0.1441,-0.9632,12,2026-08-01T14:34:21
-8.5,8.5,0.0,0.0962,0.1656,-0.9658,12,2026-08-01T14:34:22
-8.8,8.8,0.0,0.0953,0.2149,-0.9623,12,2026-08-01T14:34:23
-9.2,9.2,0.0,0.0532,0.2349,-0.9725,12,2026-08-01T14:34:23
-9.5,9.5,0.0,0.0850,0.2072,-0.9545,12,2026-08-01T14:34:24
-0.4,0.3,0.0,0.0103,0.0197,-0.9955,12,2026-08-01T14:34:27
-0.9,0.5,0.0,0.0037,0.0047,-0.9837,12,2026-08-01T14:34:28
-1.3,0.8,0.0,0.0286,0.0449,-0.9856,12,2026-08-01T14:34:28
-1.7,1.0,0.0,-0.0438,0.0122,-1.0065,12,2026-08-01T14:34:29
-2.2,1.3,0.0,0.0650,0.0408,-0.9951,12,2026-08-01T14:34:29
-2.6,1.5,0.0,0.0272,0.0708,-0.9917,12,2026-08-01T14:34:30
-3.0,1.8,0.0,-0.1405,0.0695,-0.9827,12,2026-08-01T14:34:30
-3.5,2.0,0.0,0.0410,0.0815,-0.9842,12,2026-08-01T14:34:31
-3.9,2.3,0.0,0.0940,0.0284,-0.9871,12,2026-08-01T14:34:31
-4.3,2.5,0.0,0.0830,0.0868,-0.9801,12,2026-08-01T14:34:32
-4.8,2.8,0.0,0.0379,0.0899,-0.9887,12,2026-08-01T14:34:32
-5.2,3.0,0.0,0.3029,0.1310,-0.9819,12,2026-08-01T14:34:33
-5.6,3.3,0.0,0.0853,0.1034,-0.9772,12,2026-08-01T14:34:34
-6.1,3.5,0.0,0.0813,0.0928,-0.9816,12,2026-08-01T14:34:34
-6.5,3.8,0.0,0.0691,0.1220,-0.9816,12,2026-08-01T14:34:35
-6.9,4.0,0.0,0.0330,0.0785,-0.9832,12,2026-08-01T14:34:35
-7.4,4.3,0.0,0.0573,0.1038,-0.9810,12,2026-08-01T14:34:36
-7.8,4.5,0.0,0.0817,0.1329,-0.9913,12,2026-08-01T14:34:36
-8.2,4.8,0.0,0.0982,0.1418,-0.9768,12,2026-08-01T14:34:37
-8.7,5.0,0.0,0.0997,0.1340,-0.9738,12,2026-08-01T14:34:37
-9.1,5.3,0.0,0.0640,0.1807,-0.9645,12,2026-08-01T14:34:38
-9.5,5.5,0.0,0.1233,0.1726,-0.9710,12,2026-08-01T14:34:38
-10.0,5.8,0.0,0.1003,0.1818,-0.9646,12,2026-08-01T14:34:39
-10.4,6.0,0.0,0.1238,0.1854,-0.9738,12,2026-08-01T14:34:40
-10.8,6.3,0.0,-0.0461,0.0712,-0.9953,12,2026-08-01T14:34:40
-11.3,6.5,0.0,0.1393,0.1310,-0.9755,12,2026-08-01T14:34:41
-11.7,6.8,0.0,0.1242,0.2271,-0.9420,12,2026-08-01T14:34:41
-12.1,7.0,0.0,0.0959,0.2227,-0.9402,12,2026-08-01T14:34:42
-12.6,7.3,0.0,0.1138,0.1674,-0.9581,12,2026-08-01T14:34:42
-13.0,7.5,0.0,0.1955,0.2170,-0.9503,12,2026-08-01T14:34:43
-13.4,7.8,0.0,0.0729,0.2445,-0.9474,12,2026-08-01T14:34:44
-13.9,8.0,0.0,0.0971,0.2555,-0.9539,12,2026-08-01T14:34:44
-0.5,0.1,0.0,0.0096,0.0205,-0.9731,12,2026-08-01T14:34:48
-1.0,0.3,0.0,-0.0153,0.0132,-0.9963,12,2026-08-01T14:34:48
-1.4,0.4,0.0,0.0294,0.0186,-0.9857,12,2026-08-01T14:34:49
-1.9,0.5,0.0,0.0276,0.0155,-0.9893,12,2026-08-01T14:34:49
-2.4,0.6,0.0,0.0289,0.0606,-0.9903,12,2026-08-01T14:34:50
-2.9,0.8,0.0,0.0437,0.0536,-1.0013,12,2026-08-01T14:34:50
-3.4,0.9,0.0,0.0008,0.0374,-0.9961,12,2026-08-01T14:34:51
-3.9,1.0,0.0,0.0568,0.0546,-0.9896,12,2026-08-01T14:34:51
-4.3,1.2,0.0,0.1178,0.0803,-0.9950,12,2026-08-01T14:34:52
-4.8,1.3,0.0,0.1235,0.1024,-0.9875,12,2026-08-01T14:34:53
-5.3,1.4,0.0,0.1967,0.0927,-0.9809,12,2026-08-01T14:34:53
-5.8,1.6,0.0,0.0029,0.0356,-0.9878,12,2026-08-01T14:34:54
-6.3,1.7,0.0,0.1186,0.1013,-0.9764,12,2026-08-01T14:34:54
-6.8,1.8,0.0,0.2479,0.0777,-0.9802,12,2026-08-01T14:34:55
-7.2,1.9,0.0,0.0965,0.0612,-0.9821,12,2026-08-01T14:34:55
-7.7,2.1,0.0,0.0080,0.1649,-0.9897,12,2026-08-01T14:34:56
-8.2,2.2,0.0,0.1090,0.1071,-0.9894,12,2026-08-01T14:34:56
-8.7,2.3,0.0,0.1241,0.1136,-0.9660,12,2026-08-01T14:34:57
-9.2,2.5,0.0,0.1348,0.0732,-0.9668,12,2026-08-01T14:34:58
-9.7,2.6,0.0,0.1954,0.1192,-0.9769,12,2026-08-01T14:34:58
-10.1,2.7,0.0,0.0881,0.1319,-0.9685,12,2026-08-01T14:34:59
-10.6,2.8,0.0,0.1522,0.1451,-0.9753,12,2026-08-01T14:34:59
-11.1,3.0,0.0,0.1134,0.1434,-0.9720,12,2026-08-01T14:35:00
-11.6,3.1,0.0,0.1737,0.1594,-0.9637,12,2026-08-01T14:35:00
-12.1,3.2,0.0,0.2327,0.1315,-0.9720,12,2026-08-01T14:35:01
-12.6,3.4,0.0,0.1700,0.1684,-0.9948,12,2026-08-01T14:35:02
-0.5,-0.0,0.0,0.0103,-0.0201,-1.0026,12,2026-08-01T14:35:05
-1.0,-0.0,0.0,0.0474,-0.0147,-0.9732,12,2026-08-01T14:35:05
-1.5,-0.0,0.0,-0.0782,0.0529,-0.9896,12,2026-08-01T14:35:06
-2.0,-0.0,0.0,-0.1182,0.0198,-0.9811,12,2026-08-01T14:35:06
-2.5,-0.0,0.0,0.1138,0.0371,-0.9814,12,2026-08-01T14:35:07
-3.0,-0.0,0.0,0.0525,0.0144,-1.0002,12,2026-08-01T14:35:08
-3.5,-0.0,0.0,0.0996,0.0361,-0.9950,12,2026-08-01T14:35:08
-4.0,-0.0,0.0,0.0833,0.0243,-0.9814,12,2026-08-01T14:35:09
-4.5,-0.0,0.0,0.0112,0.0592,-0.9914,12,2026-08-01T14:35:09
-5.0,-0.0,0.0,0.0831,0.0794,-0.9952,12,2026-08-01T14:35:10
-5.5,-0.0,0.0,0.1381,0.0497,-0.9837,12,2026-08-01T14:35:10
-6.0,-0.0,0.0,0.1316,0.1051,-0.9871,12,2026-08-01T14:35:11
-6.5,-0.0,0.0,0.1007,0.0519,-0.9797,12,2026-08-01T14:35:11
-7.0,-0.0,0.0,0.0743,0.0292,-0.9869,12,2026-08-01T14:35:12
-7.5,-0.0,0.0,0.1149,0.0653,-0.9847,12,2026-08-01T14:35:13
-8.0,-0.0,0.0,0.1282,0.0966,-0.9818,12,2026-08-01T14:35:13
-8.5,-0.0,0.0,0.1411,0.0735,-0.9713,12,2026-08-01T14:35:14
-9.0,-0.0,0.0,0.1402,0.0937,-0.9821,12,2026-08-01T14:35:14
-9.5,-0.0,0.0,0.1653,0.0741,-0.9722,12,2026-08-01T14:35:15
-10.0,-0.0,0.0,0.1556,0.0877,-0.9861,12,2026-08-01T14:35:15
-10.5,-0.0,0.0,0.1646,0.0884,-0.9666,12,2026-08-01T14:35:16
-11.0,-0.0,0.0,0.2125,0.0539,-0.9897,12,2026-08-01T14:35:17
-11.5,-0.0,0.0,0.1397,0.0832,-0.9642,12,2026-08-01T14:35:17
-12.0,-0.0,0.0,0.2092,0.0932,-0.9537,12,2026-08-01T14:35:18
-0.5,-0.1,0.0,-0.0125,0.0143,-0.9813,12,2026-08-01T14:35:21
-1.0,-0.3,0.0,0.0441,0.0071,-0.9893,12,2026-08-01T14:35:22
-1.4,-0.4,0.0,0.0526,0.0214,-0.9835,12,2026-08-01T14:35:22
-1.9,-0.5,0.0,0.0551,0.0178,-0.9888,12,2026-08-01T14:35:23
-2.4,-0.6,0.0,0.0447,0.0402,-0.9849,12,2026-08-01T14:35:24
-2.9,-0.8,0.0,0.0524,0.0243,-0.9886,12,2026-08-01T14:35:24
-3.4,-0.9,0.0,-0.0188,0.0002,-0.9867,12,2026-08-01T14:35:25
-3.9,-1.0,0.0,0.1031,-0.0182,-0.9954,12,2026-08-01T14:35:25
-4.3,-1.2,0.0,0.0503,0.0143,-0.9971,12,2026-08-01T14:35:26
-4.8,-1.3,0.0,0.0906,0.0390,-0.9745,12,2026-08-01T14:35:26
-5.3,-1.4,0.0,0.0852,0.0345,-0.9866,12,2026-08-01T14:35:27
-5.8,-1.6,0.0,0.3437,-0.0083,-1.0171,12,2026-08-01T14:35:27
-6.3,-1.7,0.0,0.0824,0.0327,-0.9806,12,2026-08-01T14:35:28
-6.8,-1.8,0.0,0.1425,0.0319,-0.9759,12,2026-08-01T14:35:29
-7.2,-1.9,0.0,0.1358,0.0457,-0.9781,12,2026-08-01T14:35:29
-7.7,-2.1,0.0,0.1508,-0.0243,-0.9773,12,2026-08-01T14:35:30
-8.2,-2.2,0.0,0.1382,0.0240,-0.9787,12,2026-08-01T14:35:30
-8.7,-2.3,0.0,0.1660,0.0365,-0.9871,12,2026-08-01T14:35:31
-9.2,-2.5,0.0,0.1396,0.0625,-0.9823,12,2026-08-01T14:35:31
-9.7,-2.6,0.0,0.1785,0.0473,-0.9801,12,2026-08-01T14:35:32
-10.1,-2.7,0.0,0.1738,0.0226,-0.9764,12,2026-08-01T14:35:33
-10.6,-2.8,0.0,0.1456,0.0990,-0.9607,12,2026-08-01T14:35:33
-11.1,-3.0,0.0,0.2022,0.0525,-0.9730,12,2026-08-01T14:35:34
-0.4,-0.3,0.0,0.0148,-0.0102,-0.9888,12,2026-08-01T14:35:37
-0.9,-0.5,0.0,0.0273,-0.0016,-0.9912,12,2026-08-01T14:35:38
-1.3,-0.8,0.0,0.1474,0.0327,-0.9920,12,2026-08-01T14:35:38
-1.7,-1.0,0.0,-0.0436,0.0326,-0.9847,12,2026-08-01T14:35:39
-2.2,-1.2,0.0,0.0900,0.0219,-0.9895,12,2026-08-01T14:35:39
-2.6,-1.5,0.0,0.1147,-0.0003,-0.9949,12,2026-08-01T14:35:40
-3.0,-1.7,0.0,-0.0340,0.0355,-0.9899,12,2026-08-01T14:35:40
-3.5,-2.0,0.0,0.0773,-0.0042,-0.9834,12,2026-08-01T14:35:41
-3.9,-2.2,0.0,0.0609,0.0058,-0.9989,12,2026-08-01T14:35:42
-4.3,-2.5,0.0,0.1226,-0.0035,-0.9856,12,2026-08-01T14:35:42
-4.8,-2.7,0.0,0.1366,0.0236,-0.9808,12,2026-08-01T14:35:43
-5.2,-3.0,0.0,0.0801,0.0224,-0.9870,12,2026-08-01T14:35:43
-5.6,-3.2,0.0,0.0760,-0.0003,-0.9710,12,2026-08-01T14:35:44
-6.1,-3.5,0.0,0.0949,-0.0142,-0.9847,12,2026-08-01T14:35:44
-6.5,-3.7,0.0,0.2233,-0.0345,-0.9996,12,2026-08-01T14:35:45
-6.9,-4.0,0.0,0.0862,0.0074,-0.9742,12,2026-08-01T14:35:45
-7.4,-4.3,0.0,0.1471,-0.0098,-0.9832,12,2026-08-01T14:35:46
-7.8,-4.5,0.0,0.1385,0.0191,-0.9740,12,2026-08-01T14:35:47
-8.2,-4.8,0.0,0.1382,0.0196,-0.9769,12,2026-08-01T14:35:47
-8.7,-5.0,0.0,0.1978,-0.0025,-0.9789,12,2026-08-01T14:35:48
-9.1,-5.3,0.0,0.2277,0.0296,-0.9872,12,2026-08-01T14:35:48
-9.5,-5.5,0.0,0.1373,0.0680,-0.9703,12,2026-08-01T14:35:49
-10.0,-5.8,0.0,0.1778,-0.0057,-0.9651,12,2026-08-01T14:35:49
-0.4,-0.4,0.0,0.0310,0.0014,-0.9922,12,2026-08-01T14:35:52
-0.7,-0.7,0.0,0.0006,0.0409,-0.9830,12,2026-08-01T14:35:53
-1.1,-1.1,0.0,0.0437,-0.0038,-0.9878,12,2026-08-01T14:35:54
-1.4,-1.4,0.0,0.0575,-0.0003,-0.9894,12,2026-08-01T14:35:54
-1.8,-1.8,0.0,0.0681,-0.0195,-0.9850,12,2026-08-01T14:35:55
-2.1,-2.1,0.0,0.0561,-0.0244,-0.9898,12,2026-08-01T14:35:55
-2.5,-2.5,0.0,0.0667,-0.0013,-0.9819,12,2026-08-01T14:35:56
-2.8,-2.8,0.0,0.0911,-0.0402,-0.9850,12,2026-08-01T14:35:56
-3.2,-3.2,0.0,0.1143,0.0007,-0.9812,12,2026-08-01T14:35:57
-3.5,-3.5,0.0,0.0956,-0.0587,-0.9986,12,2026-08-01T14:35:57
-3.9,-3.9,0.0,0.0495,-0.0128,-0.9786,12,2026-08-01T14:35:58
-4.2,-4.2,0.0,-0.0359,-0.0028,-0.9865,12,2026-08-01T14:35:59
-4.6,-4.6,0.0,0.1883,0.0060,-0.9934,12,2026-08-01T14:35:59
-4.9,-4.9,0.0,0.1130,-0.0329,-0.9848,12,2026-08-01T14:36:00
-5.3,-5.3,0.0,0.1420,-0.0202,-0.9809,12,2026-08-01T14:36:00
-5.7,-5.7,0.0,0.1604,-0.0321,-0.9834,12,2026-08-01T14:36:01
-6.0,-6.0,0.0,0.1492,-0.0242,-0.9788,12,2026-08-01T14:36:01
-6.4,-6.4,0.0,0.1659,-0.0372,-0.9771,12,2026-08-01T14:36:02
-6.7,-6.7,0.0,0.1477,-0.0424,-0.9687,12,2026-08-01T14:36:02
-7.1,-7.1,0.0,0.1613,-0.0434,-0.9727,12,2026-08-01T14:36:03
-7.4,-7.4,0.0,0.1911,-0.0911,-0.9640,12,2026-08-01T14:36:04
-7.8,-7.8,0.0,0.1508,-0.0595,-0.9624,12,2026-08-01T14:36:04
-8.1,-8.1,0.0,0.2375,-0.0500,-0.9707,12,2026-08-01T14:36:05
-0.2,-0.4,0.0,0.0223,0.0149,-0.9910,12,2026-08-01T14:36:09
-0.5,-0.9,0.0,0.0323,0.0119,-0.9863,12,2026-08-01T14:36:09
-0.7,-1.3,0.0,0.0072,-0.0446,-1.0096,12,2026-08-01T14:36:10
-1.0,-1.7,0.0,0.0110,-0.0336,-0.9880,12,2026-08-01T14:36:10
-1.2,-2.2,0.0,0.0494,-0.0338,-0.9993,12,2026-08-01T14:36:11
-1.5,-2.6,0.0,0.0361,-0.0182,-0.9824,12,2026-08-01T14:36:11
-1.7,-3.0,0.0,0.0282,-0.0367,-0.9865,12,2026-08-01T14:36:12
-2.0,-3.5,0.0,0.1138,-0.0349,-1.0057,12,2026-08-01T14:36:12
-2.2,-3.9,0.0,0.0350,-0.0183,-0.9827,12,2026-08-01T14:36:13
-2.5,-4.3,0.0,0.0768,-0.0370,-0.9858,12,2026-08-01T14:36:13
-2.7,-4.8,0.0,0.1403,-0.0323,-0.9917,12,2026-08-01T14:36:14
-3.0,-5.2,0.0,0.1183,-0.0579,-0.9702,12,2026-08-01T14:36:15
-3.2,-5.6,0.0,0.0834,-0.0527,-0.9871,12,2026-08-01T14:36:15
-3.5,-6.1,0.0,0.1431,-0.0318,-0.9719,12,2026-08-01T14:36:16
-3.7,-6.5,0.0,0.1195,-0.0651,-0.9867,12,2026-08-01T14:36:16
-4.0,-6.9,0.0,0.1226,-0.0477,-0.9748,12,2026-08-01T14:36:17
-4.2,-7.4,0.0,0.1034,-0.0794,-0.9738,12,2026-08-01T14:36:17
-4.5,-7.8,0.0,0.1109,-0.0828,-0.9720,12,2026-08-01T14:36:18
-4.7,-8.2,0.0,0.2163,-0.0853,-0.9974,12,2026-08-01T14:36:19
-5.0,-8.7,0.0,0.1475,-0.0842,-0.9727,12,2026-08-01T14:36:19
-5.2,-9.1,0.0,0.1737,-0.0941,-0.9769,12,2026-08-01T14:36:20
-5.5,-9.5,0.0,0.1518,-0.0968,-0.9742,12,2026-08-01T14:36:20
-5.7,-10.0,0.0,0.2259,-0.0695,-0.9678,12,2026-08-01T14:36:21
-0.1,-0.5,0.0,0.0140,0.0030,-0.9935,12,2026-08-01T14:36:24
-0.3,-1.0,0.0,0.0030,-0.0457,-0.9841,12,2026-08-01T14:36:24
-0.4,-1.4,0.0,-0.0995,0.0275,-0.9738,12,2026-08-01T14:36:25
-0.5,-1.9,0.0,0.0244,-0.0235,-0.9871,12,2026-08-01T14:36:25
-0.6,-2.4,0.0,0.0251,-0.0570,-0.9945,12,2026-08-01T14:36:26
-0.8,-2.9,0.0,0.0227,-0.0922,-0.9891,12,2026-08-01T14:36:27
-0.9,-3.4,0.0,0.0285,-0.0036,-0.9990,12,2026-08-01T14:36:27
-1.0,-3.9,0.0,-0.0223,-0.0697,-0.9964,12,2026-08-01T14:36:28
-1.2,-4.3,0.0,0.1361,-0.0777,-0.9855,12,2026-08-01T14:36:28
-1.3,-4.8,0.0,0.0964,-0.0654,-0.9920,12,2026-08-01T14:36:29
-1.4,-5.3,0.0,0.0429,-0.0581,-0.9878,12,2026-08-01T14:36:29
-1.6,-5.8,0.0,0.1277,-0.0588,-0.9810,12,2026-08-01T14:36:30
-1.7,-6.3,0.0,0.0348,-0.0632,-0.9843,12,2026-08-01T14:36:30
-1.8,-6.8,0.0,0.0848,-0.0843,-0.9827,12,2026-08-01T14:36:31
-1.9,-7.2,0.0,0.0966,-0.1171,-0.9748,12,2026-08-01T14:36:32
-2.1,-7.7,0.0,0.1031,-0.0949,-0.9849,12,2026-08-01T14:36:32
-2.2,-8.2,0.0,0.1404,-0.0903,-0.9853,12,2026-08-01T14:36:33
-2.3,-8.7,0.0,0.0844,-0.0858,-0.9695,12,2026-08-01T14:36:33
-2.5,-9.2,0.0,0.0924,-0.0736,-0.9818,12,2026-08-01T14:36:34
-2.6,-9.7,0.0,0.0458,-0.1375,-0.9897,12,2026-08-01T14:36:34
-2.7,-10.1,0.0,0.1454,-0.1056,-0.9756,12,2026-08-01T14:36:35
-2.8,-10.6,0.0,0.1627,-0.1310,-0.9794,12,2026-08-01T14:36:35
-3.0,-11.1,0.0,0.1729,-0.1482,-0.9752,12,2026-08-01T14:36:36
-3.1,-11.6,0.0,0.1338,-0.0901,-0.9590,12,2026-08-01T14:36:37
-3.2,-12.1,0.0,0.1228,-0.1587,-0.9507,12,2026-08-01T14:36:37
-3.4,-12.6,0.0,0.1229,-0.1012,-0.9678,12,2026-08-01T14:36:38
0.0,-0.5,0.0,0.0153,0.0019,-0.9897,12,2026-08-01T14:36:41
0.0,-1.0,0.0,-0.0031,-0.0195,-0.9849,12,2026-08-01T14:36:41
0.0,-1.5,0.0,0.0721,-0.0114,-0.9795,12,2026-08-01T14:36:42
0.0,-2.0,0.0,0.0306,-0.0245,-0.9755,12,2026-08-01T14:36:42
0.0,-2.5,0.0,0.0203,-0.0405,-0.9863,12,2026-08-01T14:36:43
0.0,-3.0,0.0,0.0145,-0.0509,-0.9883,12,2026-08-01T14:36:44
0.0,-3.5,0.0,0.0898,-0.0596,-0.9996,12,2026-08-01T14:36:44
0.0,-4.0,0.0,0.0350,-0.0003,-0.9865,12,2026-08-01T14:36:45
0.0,-4.5,0.0,0.1157,-0.0795,-0.9898,12,2026-08-01T14:36:45
0.0,-5.0,0.0,0.2554,-0.0924,-0.9985,12,2026-08-01T14:36:46
0.0,-5.5,0.0,0.0714,-0.0769,-0.9953,12,2026-08-01T14:36:46
0.0,-6.0,0.0,0.0469,-0.0801,-0.9911,12,2026-08-01T14:36:47
0.0,-6.5,0.0,0.0631,-0.0915,-0.9781,12,2026-08-01T14:36:47
0.0,-7.0,0.0,0.0773,-0.0988,-0.9794,12,2026-08-01T14:36:48
0.0,-7.5,0.0,0.0673,-0.1024,-0.9801,12,2026-08-01T14:36:49
0.0,-8.0,0.0,0.1785,-0.1566,-0.9915,12,2026-08-01T14:36:49
0.0,-8.5,0.0,0.1310,-0.1319,-0.9968,12,2026-08-01T14:36:50
0.0,-9.0,0.0,0.0902,-0.1274,-0.9756,12,2026-08-01T14:36:50
0.0,-9.5,0.0,0.0759,-0.1438,-0.9835,12,2026-08-01T14:36:51
0.0,-10.0,0.0,0.0653,-0.1337,-0.9776,12,2026-08-01T14:36:51
0.0,-10.5,0.0,0.0892,-0.1869,-0.9835,12,2026-08-01T14:36:52
0.0,-11.0,0.0,0.1179,-0.1655,-0.9910,12,2026-08-01T14:36:52
0.0,-11.5,0.0,0.2170,-0.1348,-0.9829,12,2026-08-01T14:36:53
0.0,-12.0,0.0,0.1215,-0.2008,-0.9779,12,2026-08-01T14:36:53
0.0,-12.5,0.0,0.1108,-0.2087,-0.9704,12,2026-08-01T14:36:54
0.0,-13.0,0.0,0.1208,-0.1847,-0.9648,12,2026-08-01T14:36:55
0.0,-13.5,0.0,0.1202,-0.2005,-0.9662,12,2026-08-01T14:36:55
0.0,-14.0,0.0,0.1008,-0.2071,-0.9598,12,2026-08-01T14:36:56
0.0,-14.5,0.0,0.1008,-0.1404,-0.9413,12,2026-08-01T14:36:56
0.0,-15.0,0.0,0.1958,-0.2117,-0.9682,12,2026-08-01T14:36:57
0.0,-15.5,0.0,0.1656,-0.1968,-0.9775,12,2026-08-01T14:36:57
0.0,-16.0,0.0,-0.0912,-0.4019,-0.9562,12,2026-08-01T14:36:58
0.0,-16.5,0.0,0.1114,-0.2775,-0.9254,12,2026-08-01T14:36:59
0.1,-0.5,0.0,0.0097,-0.0026,-0.9895,12,2026-08-01T14:37:02
0.3,-1.0,0.0,0.0056,-0.0050,-0.9933,12,2026-08-01T14:37:03
0.4,-1.4,0.0,0.0175,-0.0135,-0.9919,12,2026-08-01T14:37:03
0.5,-1.9,0.0,-0.0125,-0.0271,-0.9773,12,2026-08-01T14:37:04
0.6,-2.4,0.0,-0.0091,-0.0292,-0.9891,12,2026-08-01T14:37:05
0.8,-2.9,0.0,0.0302,-0.0231,-0.9756,12,2026-08-01T14:37:05
0.9,-3.4,0.0,0.0108,-0.0493,-0.9859,12,2026-08-01T14:37:06
1.0,-3.9,0.0,0.0494,-0.0502,-0.9863,12,2026-08-01T14:37:06
1.2,-4.3,0.0,0.0372,-0.0593,-0.9826,12,2026-08-01T14:37:07
1.3,-4.8,0.0,0.0244,-0.0669,-0.9935,12,2026-08-01T14:37:07
1.4,-5.3,0.0,0.0297,-0.0660,-0.9858,12,2026-08-01T14:37:08
1.6,-5.8,0.0,0.0264,-0.0889,-0.9783,12,2026-08-01T14:37:08
1.7,-6.3,0.0,0.0313,-0.0988,-0.9863,12,2026-08-01T14:37:09
1.8,-6.8,0.0,0.0319,-0.1119,-0.9802,12,2026-08-01T14:37:09
1.9,-7.2,0.0,0.0166,-0.1112,-0.9687,12,2026-08-01T14:37:10
2.1,-7.7,0.0,-0.0317,-0.1339,-0.9699,12,2026-08-01T14:37:11
2.2,-8.2,0.0,-0.1401,-0.0950,-0.9950,12,2026-08-01T14:37:11
2.3,-8.7,0.0,0.0838,-0.1600,-0.9623,12,2026-08-01T14:37:12
2.5,-9.2,0.0,0.0179,-0.1279,-0.9643,12,2026-08-01T14:37:12
2.6,-9.7,0.0,-0.0610,-0.1107,-0.9706,12,2026-08-01T14:37:13
2.7,-10.1,0.0,0.0706,-0.2201,-0.9911,12,2026-08-01T14:37:13
2.8,-10.6,0.0,0.1153,-0.2036,-0.9961,12,2026-08-01T14:37:14
3.0,-11.1,0.0,0.0550,-0.1707,-0.9765,12,2026-08-01T14:37:15
3.1,-11.6,0.0,0.0494,-0.1839,-0.9801,12,2026-08-01T14:37:15
3.2,-12.1,0.0,0.0594,-0.2087,-0.9641,12,2026-08-01T14:37:16
3.4,-12.6,0.0,0.0725,-0.2100,-0.9702,12,2026-08-01T14:37:16
0.2,-0.4,0.0,0.0049,-0.0025,-0.9930,12,2026-08-01T14:37:20
0.5,-0.9,0.0,0.0024,0.0169,-0.9871,12,2026-08-01T14:37:20
0.7,-1.3,0.0,0.0137,-0.0170,-0.9980,12,2026-08-01T14:37:21
1.0,-1.7,0.0,-0.0080,-0.0187,-0.9908,12,2026-08-01T14:37:21
1.2,-2.2,0.0,0.0116,-0.0434,-0.9896,12,2026-08-01T14:37:22
1.5,-2.6,0.0,-0.0121,-0.0379,-0.9826,12,2026-08-01T14:37:22
1.7,-3.0,0.0,-0.0024,-0.0476,-0.9891,12,2026-08-01T14:37:23
2.0,-3.5,0.0,0.0104,-0.0321,-0.9894,12,2026-08-01T14:37:23
2.2,-3.9,0.0,0.0111,-0.0549,-0.9871,12,2026-08-01T14:37:24
2.5,-4.3,0.0,0.0711,-0.0590,-0.9910,12,2026-08-01T14:37:24
2.7,-4.8,0.0,0.0010,-0.0686,-0.9760,12,2026-08-01T14:37:25
3.0,-5.2,0.0,0.0025,-0.0828,-0.9853,12,2026-08-01T14:37:26
3.2,-5.6,0.0,-0.0062,-0.0929,-0.9908,12,2026-08-01T14:37:26
3.5,-6.1,0.0,-0.0160,-0.1013,-0.9901,12,2026-08-01T14:37:27
3.7,-6.5,0.0,0.0034,-0.1094,-0.9834,12,2026-08-01T14:37:27
4.0,-6.9,0.0,-0.0118,-0.1267,-0.9777,12,2026-08-01T14:37:28
4.2,-7.4,0.0,0.0382,-0.1329,-0.9841,12,2026-08-01T14:37:28
4.5,-7.8,0.0,0.0288,-0.1387,-0.9886,12,2026-08-01T14:37:29
4.7,-8.2,0.0,-0.0125,-0.1606,-0.9800,12,2026-08-01T14:37:30
5.0,-8.7,0.0,0.0175,-0.1803,-0.9749,12,2026-08-01T14:37:30
5.2,-9.1,0.0,0.0201,-0.1626,-0.9733,12,2026-08-01T14:37:31
5.5,-9.5,0.0,0.0100,-0.1621,-0.9759,12,2026-08-01T14:37:31
5.7,-10.0,0.0,0.0156,-0.1906,-0.9713,12,2026-08-01T14:37:32
0.4,-0.4,0.0,0.0043,-0.0038,-0.9891,12,2026-08-01T14:37:35
0.7,-0.7,0.0,-0.0118,-0.0138,-0.9992,12,2026-08-01T14:37:36
1.1,-1.1,0.0,-0.0745,-0.0103,-0.9834,12,2026-08-01T14:37:36
1.4,-1.4,0.0,-0.0063,-0.0297,-0.9936,12,2026-08-01T14:37:37
1.8,-1.8,0.0,-0.0236,-0.0369,-0.9957,12,2026-08-01T14:37:37
2.1,-2.1,0.0,-0.0201,-0.0370,-0.9908,12,2026-08-01T14:37:38
2.5,-2.5,0.0,0.0321,-0.0453,-0.9879,12,2026-08-01T14:37:38
2.8,-2.8,0.0,-0.0151,-0.0597,-0.9930,12,2026-08-01T14:37:39
3.2,-3.2,0.0,0.0161,-0.0713,-0.9723,12,2026-08-01T14:37:39
3.5,-3.5,0.0,-0.0240,-0.0680,-0.9896,12,2026-08-01T14:37:40
3.9,-3.9,0.0,-0.0119,-0.0851,-0.9864,12,2026-08-01T14:37:41
4.2,-4.2,0.0,-0.0074,-0.0739,-0.9834,12,2026-08-01T14:37:41
4.6,-4.6,0.0,-0.0309,-0.0883,-0.9810,12,2026-08-01T14:37:42
4.9,-4.9,0.0,-0.0111,-0.1221,-0.9924,12,2026-08-01T14:37:42
5.3,-5.3,0.0,-0.0197,-0.1026,-0.9961,12,2026-08-01T14:37:43
5.7,-5.7,0.0,-0.0402,-0.1206,-0.9810,12,2026-08-01T14:37:43
6.0,-6.0,0.0,-0.0282,-0.1134,-0.9858,12,2026-08-01T14:37:44
6.4,-6.4,0.0,-0.0392,-0.1485,-0.9740,12,2026-08-01T14:37:45
6.7,-6.7,0.0,-0.0500,-0.1428,-0.9748,12,2026-08-01T14:37:45
7.1,-7.1,0.0,-0.0364,-0.1476,-0.9794,12,2026-08-01T14:37:46
7.4,-7.4,0.0,-0.0917,-0.1580,-0.9648,12,2026-08-01T14:37:46
7.8,-7.8,0.0,-0.0553,-0.1653,-0.9837,12,2026-08-01T14:37:47
8.1,-8.1,0.0,-0.0317,-0.1798,-0.9707,12,2026-08-01T14:37:48
0.4,-0.3,0.0,-0.0123,-0.0097,-0.9889,12,2026-08-01T14:37:51
0.9,-0.5,0.0,-0.0226,0.0302,-0.9767,12,2026-08-01T14:37:52
1.3,-0.8,0.0,-0.0610,0.0057,-0.9967,12,2026-08-01T14:37:52
1.7,-1.0,0.0,-0.0369,-0.0256,-0.9923,12,2026-08-01T14:37:53
2.2,-1.3,0.0,-0.0568,-0.0457,-0.9913,12,2026-08-01T14:37:54
2.6,-1.5,0.0,0.0064,-0.0351,-0.9942,12,2026-08-01T14:37:54
3.0,-1.8,0.0,-0.0455,-0.0447,-0.9929,12,2026-08-01T14:37:55
3.5,-2.0,0.0,-0.0369,-0.0424,-0.9928,12,2026-08-01T14:37:55
3.9,-2.3,0.0,-0.0518,-0.0794,-0.9886,12,2026-08-01T14:37:56
4.3,-2.5,0.0,-0.0728,-0.0873,-0.9928,12,2026-08-01T14:37:56
4.8,-2.8,0.0,-0.0689,-0.1148,-0.9903,12,2026-08-01T14:37:57
5.2,-3.0,0.0,-0.0665,-0.0798,-0.9786,12,2026-08-01T14:37:57
5.6,-3.3,0.0,-0.0531,-0.0726,-0.9792,12,2026-08-01T14:37:58
6.1,-3.5,0.0,-0.0584,-0.0437,-0.9799,12,2026-08-01T14:37:59
6.5,-3.8,0.0,-0.0837,-0.1042,-0.9744,12,2026-08-01T14:37:59
6.9,-4.0,0.0,-0.0953,-0.1575,-0.9790,12,2026-08-01T14:38:00
7.4,-4.3,0.0,-0.0841,-0.1099,-0.9824,12,2026-08-01T14:38:00
7.8,-4.5,0.0,-0.1071,-0.1267,-0.9847,12,2026-08-01T14:38:01
8.2,-4.8,0.0,-0.0858,-0.0813,-0.9722,12,2026-08-01T14:38:01
8.7,-5.0,0.0,-0.0633,-0.1584,-0.9703,12,2026-08-01T14:38:02
9.1,-5.3,0.0,-0.0815,-0.1453,-0.9730,12,2026-08-01T14:38:03
9.5,-5.5,0.0,-0.0860,-0.1477,-0.9759,12,2026-08-01T14:38:03
10.0,-5.8,0.0,-0.0874,-0.1467,-0.9853,12,2026-08-01T14:38:04
0.5,-0.1,0.0,-0.0175,-0.0117,-0.9865,12,2026-08-01T14:38:07
1.0,-0.3,0.0,-0.0222,-0.0107,-0.9925,12,2026-08-01T14:38:08
1.4,-0.4,0.0,-0.1171,0.0070,-0.9844,12,2026-08-01T14:38:08
1.9,-0.5,0.0,-0.0411,-0.0343,-0.9966,12,2026-08-01T14:38:09
2.4,-0.6,0.0,-0.0482,0.0171,-0.9844,12,2026-08-01T14:38:09
2.9,-0.8,0.0,-0.0533,0.0033,-0.9803,12,2026-08-01T14:38:10
3.4,-0.9,0.0,-0.0612,-0.0421,-0.9892,12,2026-08-01T14:38:10
3.9,-1.0,0.0,-0.1119,-0.0118,-0.9895,12,2026-08-01T14:38:11
4.3,-1.2,0.0,-0.0596,-0.0376,-0.9849,12,2026-08-01T14:38:11
4.8,-1.3,0.0,-0.0856,-0.0850,-0.9906,12,2026-08-01T14:38:12
5.3,-1.4,0.0,-0.1622,-0.0549,-0.9802,12,2026-08-01T14:38:12
5.8,-1.6,0.0,-0.1241,-0.0715,-0.9827,12,2026-08-01T14:38:13
6.3,-1.7,0.0,-0.0831,-0.0516,-0.9865,12,2026-08-01T14:38:14
6.8,-1.8,0.0,-0.1040,-0.0881,-0.9729,12,2026-08-01T14:38:14
7.2,-1.9,0.0,-0.0780,-0.0590,-0.9731,12,2026-08-01T14:38:15
7.7,-2.1,0.0,-0.1251,-0.0910,-0.9827,12,2026-08-01T14:38:15
8.2,-2.2,0.0,-0.0958,-0.0940,-0.9865,12,2026-08-01T14:38:16
8.7,-2.3,0.0,-0.1417,-0.0990,-0.9797,12,2026-08-01T14:38:16
9.2,-2.5,0.0,-0.0532,-0.0490,-0.9804,12,2026-08-01T14:38:17
9.7,-2.6,0.0,-0.1234,-0.1361,-0.9856,12,2026-08-01T14:38:17
10.1,-2.7,0.0,-0.1632,-0.1353,-0.9783,12,2026-08-01T14:38:18
10.6,-2.8,0.0,-0.1149,-0.1485,-0.9703,12,2026-08-01T14:38:19
11.1,-3.0,0.0,-0.1853,-0.1799,-0.9597,12,2026-08-01T14:38:19
