cmd_roll_deg,cmd_pitch_deg,cmd_yaw_deg,accel_x_g,accel_y_g,accel_z_g,n_samples,timestamp
0.0,0.0,0.0,0.0170,0.0069,-0.9943,12,2026-08-01T14:24:22
0.5,0.0,0.0,-0.0234,0.0170,-0.9869,12,2026-08-01T14:24:23
1.0,0.0,0.0,-0.0058,0.0135,-1.0074,12,2026-08-01T14:24:23
1.5,0.0,0.0,0.0280,0.0048,-0.9897,12,2026-08-01T14:24:24
2.0,0.0,0.0,-0.0715,-0.0079,-0.9821,12,2026-08-01T14:24:24
2.5,0.0,0.0,-0.0164,-0.0181,-0.9914,12,2026-08-01T14:24:25
3.0,0.0,0.0,-0.0757,-0.0278,-0.9897,12,2026-08-01T14:24:25
3.5,0.0,0.0,-0.0982,-0.0283,-0.9857,12,2026-08-01T14:24:26
4.0,0.0,0.0,-0.0292,-0.0321,-0.9943,12,2026-08-01T14:24:26
4.5,0.0,0.0,-0.0291,-0.0375,-0.9815,12,2026-08-01T14:24:27
5.0,0.0,0.0,-0.0669,-0.0090,-0.9832,12,2026-08-01T14:24:28
5.5,0.0,0.0,-0.0286,-0.0723,-0.9925,12,2026-08-01T14:24:28
6.0,0.0,0.0,-0.1163,-0.0275,-0.9771,12,2026-08-01T14:24:29
6.5,0.0,0.0,-0.0535,-0.0186,-0.9906,12,2026-08-01T14:24:29
7.0,0.0,0.0,-0.0655,-0.0538,-0.9818,12,2026-08-01T14:24:30
7.5,0.0,0.0,-0.0503,-0.0634,-0.9696,12,2026-08-01T14:24:30
8.0,0.0,0.0,-0.0936,-0.0543,-0.9784,12,2026-08-01T14:24:31
8.5,0.0,0.0,-0.0909,0.0002,-0.9612,12,2026-08-01T14:24:31
9.0,0.0,0.0,-0.0702,-0.0801,-0.9716,12,2026-08-01T14:24:32
9.5,0.0,0.0,-0.0695,-0.1735,-0.9537,12,2026-08-01T14:24:33
10.0,0.0,0.0,0.4280,-0.1370,-0.9799,12,2026-08-01T14:24:33
10.5,0.0,0.0,-0.1010,-0.0643,-0.9762,12,2026-08-01T14:24:34
11.0,0.0,0.0,-0.0469,-0.0373,-0.9578,12,2026-08-01T14:24:34
11.5,0.0,0.0,-0.1951,-0.1453,-0.9679,12,2026-08-01T14:24:35
12.0,0.0,0.0,-0.1773,-0.0823,-0.9663,12,2026-08-01T14:24:36
0.5,0.1,0.0,-0.0051,-0.0027,-0.9892,12,2026-08-01T14:24:39
1.0,0.3,0.0,-0.0252,0.0349,-0.9933,12,2026-08-01T14:24:39
1.4,0.4,0.0,-0.0368,0.0019,-0.9903,12,2026-08-01T14:24:40
1.9,0.5,0.0,-0.0874,-0.0109,-0.9840,12,2026-08-01T14:24:41
2.4,0.6,0.0,-0.0456,-0.0005,-0.9896,12,2026-08-01T14:24:41
2.9,0.8,0.0,-0.0238,-0.0273,-0.9946,12,2026-08-01T14:24:42
3.4,0.9,0.0,-0.0310,-0.0248,-0.9874,12,2026-08-01T14:24:42
3.9,1.0,0.0,-0.0536,-0.0042,-0.9924,12,2026-08-01T14:24:43
4.3,1.2,0.0,-0.0845,-0.0196,-0.9768,12,2026-08-01T14:24:43
4.8,1.3,0.0,-0.0824,-0.0114,-0.9847,12,2026-08-01T14:24:44
5.3,1.4,0.0,0.0260,-0.0004,-0.9811,12,2026-08-01T14:24:44
5.8,1.6,0.0,-0.0347,-0.0410,-0.9787,12,2026-08-01T14:24:45
6.3,1.7,0.0,-0.0674,-0.0085,-0.9850,12,2026-08-01T14:24:45
6.8,1.8,0.0,-0.0779,-0.0568,-0.9978,12,2026-08-01T14:24:46
7.2,1.9,0.0,-0.1566,-0.0071,-0.9652,12,2026-08-01T14:24:47
7.7,2.1,0.0,-0.1542,0.0004,-0.9876,12,2026-08-01T14:24:47
8.2,2.2,0.0,-0.1261,-0.0009,-0.9715,12,2026-08-01T14:24:48
8.7,2.3,0.0,-0.0709,-0.1007,-0.9862,12,2026-08-01T14:24:48
9.2,2.5,0.0,-0.1779,-0.0815,-0.9882,12,2026-08-01T14:24:49
9.7,2.6,0.0,-0.1722,-0.0402,-0.9898,12,2026-08-01T14:24:49
10.1,2.7,0.0,-0.1803,0.0160,-0.9502,12,2026-08-01T14:24:50
10.6,2.8,0.0,-0.1786,-0.0260,-0.9663,12,2026-08-01T14:24:50
11.1,3.0,0.0,-0.1672,-0.0025,-0.9486,12,2026-08-01T14:24:51
11.6,3.1,0.0,-0.4858,-0.0118,-0.9431,12,2026-08-01T14:24:52
12.1,3.2,0.0,-0.2216,-0.0393,-0.9817,12,2026-08-01T14:24:52
12.6,3.4,0.0,-0.1824,-0.0262,-0.9865,12,2026-08-01T14:24:53
0.4,0.3,0.0,-0.0004,0.0002,-0.9916,12,2026-08-01T14:24:56
0.9,0.5,0.0,0.0260,0.0344,-0.9848,12,2026-08-01T14:24:56
1.3,0.8,0.0,-0.0356,0.0240,-1.0082,12,2026-08-01T14:24:57
1.7,1.0,0.0,-0.0194,-0.0395,-0.9995,12,2026-08-01T14:24:58
2.2,1.2,0.0,-0.0411,0.0149,-0.9949,12,2026-08-01T14:24:58
2.6,1.5,0.0,-0.0591,0.0024,-0.9876,12,2026-08-01T14:24:59
3.0,1.7,0.0,-0.0504,0.0259,-0.9887,12,2026-08-01T14:24:59
3.5,2.0,0.0,0.0307,0.0587,-0.9949,12,2026-08-01T14:25:00
3.9,2.2,0.0,-0.0751,-0.0290,-0.9897,12,2026-08-01T14:25:00
4.3,2.5,0.0,-0.0654,-0.0048,-0.9908,12,2026-08-01T14:25:01
4.8,2.7,0.0,-0.0651,-0.0057,-0.9870,12,2026-08-01T14:25:01
5.2,3.0,0.0,-0.1102,-0.0123,-0.9817,12,2026-08-01T14:25:02
5.6,3.2,0.0,-0.1441,0.0044,-0.9816,12,2026-08-01T14:25:03
6.1,3.5,0.0,-0.0454,-0.0327,-0.9886,12,2026-08-01T14:25:03
6.5,3.7,0.0,-0.1228,0.0726,-0.9730,12,2026-08-01T14:25:04
6.9,4.0,0.0,-0.0998,-0.0060,-0.9747,12,2026-08-01T14:25:04
7.4,4.3,0.0,-0.1768,0.0098,-0.9723,12,2026-08-01T14:25:05
7.8,4.5,0.0,-0.1222,-0.0168,-0.9853,12,2026-08-01T14:25:05
8.2,4.8,0.0,-0.2385,0.0526,-0.9759,12,2026-08-01T14:25:06
8.7,5.0,0.0,-0.2085,-0.0003,-0.9754,12,2026-08-01T14:25:06
9.1,5.3,0.0,-0.2511,0.0271,-0.9760,12,2026-08-01T14:25:07
9.5,5.5,0.0,-0.1526,0.0138,-0.9795,12,2026-08-01T14:25:07
10.0,5.8,0.0,-0.1650,-0.0051,-0.9756,12,2026-08-01T14:25:08
10.4,6.0,0.0,-0.1626,0.0005,-0.9727,12,2026-08-01T14:25:09
10.8,6.3,0.0,-0.2074,0.0032,-0.9719,12,2026-08-01T14:25:09
11.3,6.5,0.0,-0.2192,0.0136,-0.9633,12,2026-08-01T14:25:10
11.7,6.8,0.0,-0.2433,0.0066,-0.9561,12,2026-08-01T14:25:10
12.1,7.0,0.0,-0.2590,0.0691,-0.9500,12,2026-08-01T14:25:11
12.6,7.3,0.0,-0.2239,0.0348,-0.9528,12,2026-08-01T14:25:11
13.0,7.5,0.0,-0.2088,0.0527,-0.9677,12,2026-08-01T14:25:12
13.4,7.8,0.0,-0.2519,0.0913,-0.9712,12,2026-08-01T14:25:13
13.9,8.0,0.0,-0.2461,-0.0248,-0.9470,12,2026-08-01T14:25:13
0.4,0.4,0.0,-0.0096,-0.0199,-0.9472,12,2026-08-01T14:25:16
0.7,0.7,0.0,-0.0191,0.0073,-0.9887,12,2026-08-01T14:25:17
1.1,1.1,0.0,-0.0194,0.0102,-0.9874,12,2026-08-01T14:25:18
1.4,1.4,0.0,-0.0321,0.0156,-0.9987,12,2026-08-01T14:25:18
1.8,1.8,0.0,-0.0420,0.0043,-0.9847,12,2026-08-01T14:25:19
2.1,2.1,0.0,-0.0650,0.0006,-0.9841,12,2026-08-01T14:25:19
2.5,2.5,0.0,-0.0714,-0.0097,-0.9979,12,2026-08-01T14:25:20
2.8,2.8,0.0,-0.0509,0.0608,-0.9812,12,2026-08-01T14:25:20
3.2,3.2,0.0,-0.0599,0.0328,-0.9749,12,2026-08-01T14:25:21
3.5,3.5,0.0,-0.0940,0.0288,-0.9898,12,2026-08-01T14:25:21
3.9,3.9,0.0,-0.0578,0.0467,-0.9895,12,2026-08-01T14:25:22
4.2,4.2,0.0,-0.0430,0.0409,-0.9803,12,2026-08-01T14:25:22
4.6,4.6,0.0,-0.1058,0.0370,-0.9842,12,2026-08-01T14:25:23
4.9,4.9,0.0,-0.0422,-0.0298,-0.9983,12,2026-08-01T14:25:24
5.3,5.3,0.0,-0.1311,0.0548,-0.9745,12,2026-08-01T14:25:24
5.7,5.7,0.0,-0.1192,0.0433,-0.9779,12,2026-08-01T14:25:25
6.0,6.0,0.0,-0.1211,0.0110,-0.9674,12,2026-08-01T14:25:25
6.4,6.4,0.0,-0.1016,0.0367,-0.9763,12,2026-08-01T14:25:26
6.7,6.7,0.0,-0.1443,0.0290,-0.9750,12,2026-08-01T14:25:26
7.1,7.1,0.0,-0.0256,0.0378,-0.9867,12,2026-08-01T14:25:27
7.4,7.4,0.0,-0.1347,0.0574,-0.9790,12,2026-08-01T14:25:27
7.8,7.8,0.0,-0.1789,0.0553,-0.9701,12,2026-08-01T14:25:28
8.1,8.1,0.0,-0.1906,0.0857,-0.9676,12,2026-08-01T14:25:29
8.5,8.5,0.0,-0.2143,0.0595,-0.9746,12,2026-08-01T14:25:29
8.8,8.8,0.0,-0.1773,0.0556,-0.9672,12,2026-08-01T14:25:30
9.2,9.2,0.0,-0.1925,0.0900,-0.9574,12,2026-08-01T14:25:30
9.5,9.5,0.0,-0.2719,0.1702,-0.9337,12,2026-08-01T14:25:31
0.2,0.4,0.0,-0.0112,0.0122,-0.9908,12,2026-08-01T14:25:34
0.5,0.9,0.0,0.0079,0.0179,-0.9947,12,2026-08-01T14:25:35
0.7,1.3,0.0,-0.0076,0.0133,-0.9902,12,2026-08-01T14:25:35
1.0,1.7,0.0,0.0156,0.0197,-0.9821,12,2026-08-01T14:25:36
1.2,2.2,0.0,-0.0173,0.0179,-0.9954,12,2026-08-01T14:25:36
1.5,2.6,0.0,-0.0470,0.0346,-0.9838,12,2026-08-01T14:25:37
1.7,3.0,0.0,-0.0497,0.0158,-1.0022,12,2026-08-01T14:25:38
2.0,3.5,0.0,-0.0517,0.0420,-0.9877,12,2026-08-01T14:25:38
2.2,3.9,0.0,-0.0631,0.0667,-0.9887,12,2026-08-01T14:25:39
2.5,4.3,0.0,-0.0461,0.0575,-0.9819,12,2026-08-01T14:25:39
2.7,4.8,0.0,-0.0725,0.0524,-0.9887,12,2026-08-01T14:25:40
3.0,5.2,0.0,-0.0704,0.0490,-0.9887,12,2026-08-01T14:25:40
3.2,5.6,0.0,-0.1164,0.0450,-1.0039,12,2026-08-01T14:25:41
3.5,6.1,0.0,-0.1489,0.0720,-0.9812,12,2026-08-01T14:25:41
3.7,6.5,0.0,0.0857,0.0566,-0.9974,12,2026-08-01T14:25:42
4.0,6.9,0.0,-0.0951,0.1047,-0.9761,12,2026-08-01T14:25:43
4.2,7.4,0.0,-0.1490,0.0432,-0.9969,12,2026-08-01T14:25:43
4.5,7.8,0.0,-0.1410,0.0688,-0.9845,12,2026-08-01T14:25:44
4.7,8.2,0.0,-0.0864,0.1000,-0.9740,12,2026-08-01T14:25:44
5.0,8.7,0.0,-0.1434,0.1243,-0.9757,12,2026-08-01T14:25:45
5.2,9.1,0.0,-0.1494,0.0755,-0.9677,12,2026-08-01T14:25:45
5.5,9.5,0.0,-0.1599,0.0693,-0.9743,12,2026-08-01T14:25:46
5.7,10.0,0.0,-0.1119,0.2402,-0.9650,12,2026-08-01T14:25:47
6.0,10.4,0.0,-0.1702,0.1204,-1.0050,12,2026-08-01T14:25:47
0.1,0.5,0.0,-0.0070,0.0113,-0.9890,12,2026-08-01T14:25:51
0.3,1.0,0.0,0.0067,0.0129,-0.9908,12,2026-08-01T14:25:51
0.4,1.4,0.0,-0.0190,0.0029,-0.9848,12,2026-08-01T14:25:52
0.5,1.9,0.0,-0.0748,-0.0013,-0.9978,12,2026-08-01T14:25:52
0.6,2.4,0.0,-0.0267,0.0304,-0.9843,12,2026-08-01T14:25:53
0.8,2.9,0.0,-0.0133,0.0292,-1.0024,12,2026-08-01T14:25:53
0.9,3.4,0.0,-0.0387,0.0467,-0.9884,12,2026-08-01T14:25:54
1.0,3.9,0.0,-0.0438,0.0634,-0.9889,12,2026-08-01T14:25:54
1.2,4.3,0.0,-0.0614,0.0702,-1.0068,12,2026-08-01T14:25:55
1.3,4.8,0.0,-0.0729,0.0485,-0.9819,12,2026-08-01T14:25:56
1.4,5.3,0.0,-0.0619,0.0638,-0.9771,12,2026-08-01T14:25:56
1.6,5.8,0.0,-0.1165,0.0689,-0.9875,12,2026-08-01T14:25:57
1.7,6.3,0.0,-0.1027,0.0818,-0.9845,12,2026-08-01T14:25:57
1.8,6.8,0.0,-0.1324,0.0974,-0.9812,12,2026-08-01T14:25:58
1.9,7.2,0.0,-0.0986,0.0985,-0.9831,12,2026-08-01T14:25:58
2.1,7.7,0.0,-0.1519,0.0372,-0.9962,12,2026-08-01T14:25:59
2.2,8.2,0.0,-0.0315,0.0636,-0.9816,12,2026-08-01T14:25:59
2.3,8.7,0.0,-0.0944,0.0450,-0.9696,12,2026-08-01T14:26:00
2.5,9.2,0.0,-0.0541,0.1239,-0.9747,12,2026-08-01T14:26:01
2.6,9.7,0.0,-0.1213,0.1679,-1.0049,12,2026-08-01T14:26:01
2.7,10.1,0.0,-0.1165,0.1386,-0.9959,12,2026-08-01T14:26:02
2.8,10.6,0.0,-0.1088,0.1214,-0.9544,12,2026-08-01T14:26:02
3.0,11.1,0.0,-0.1525,0.0697,-0.9840,12,2026-08-01T14:26:03
-0.0,0.5,0.0,-0.0015,0.0106,-0.9897,12,2026-08-01T14:26:06
-0.0,1.0,0.0,-0.0221,0.0128,-0.9886,12,2026-08-01T14:26:07
-0.0,1.5,0.0,0.0012,0.0208,-0.9772,12,2026-08-01T14:26:07
-0.0,2.0,0.0,-0.0112,0.0358,-0.9910,12,2026-08-01T14:26:08
-0.0,2.5,0.0,-0.0208,0.0381,-0.9847,12,2026-08-01T14:26:09
-0.0,3.0,0.0,0.0030,0.0520,-0.9977,12,2026-08-01T14:26:09
-0.0,3.5,0.0,0.0070,0.0489,-0.9908,12,2026-08-01T14:26:10
-0.0,4.0,0.0,-0.0329,0.0713,-0.9795,12,2026-08-01T14:26:10
-0.0,4.5,0.0,-0.0264,0.0426,-0.9956,12,2026-08-01T14:26:11
-0.0,5.0,0.0,-0.0568,0.0785,-0.9911,12,2026-08-01T14:26:11
-0.0,5.5,0.0,-0.0216,0.0577,-0.9904,12,2026-08-01T14:26:12
-0.0,6.0,0.0,-0.0670,0.0881,-0.9825,12,2026-08-01T14:26:12
-0.0,6.5,0.0,-0.0298,0.1132,-0.9852,12,2026-08-01T14:26:13
-0.0,7.0,0.0,-0.1001,0.0922,-0.9792,12,2026-08-01T14:26:14
-0.0,7.5,0.0,-0.0982,0.1275,-0.9877,12,2026-08-01T14:26:14
-0.0,8.0,0.0,-0.0118,0.1085,-0.9757,12,2026-08-01T14:26:15
-0.0,8.5,0.0,-0.0698,0.1259,-0.9786,12,2026-08-01T14:26:15
-0.0,9.0,0.0,-0.0145,0.1724,-0.9808,12,2026-08-01T14:26:16
-0.0,9.5,0.0,-0.0611,0.1254,-0.9806,12,2026-08-01T14:26:16
-0.0,10.0,0.0,-0.0664,0.1497,-0.9751,12,2026-08-01T14:26:17
-0.0,10.5,0.0,-0.0710,0.1516,-0.9677,12,2026-08-01T14:26:18
-0.0,11.0,0.0,-0.0750,0.1683,-0.9636,12,2026-08-01T14:26:18
-0.0,11.5,0.0,-0.0492,0.2017,-0.9580,12,2026-08-01T14:26:19
-0.0,12.0,0.0,-0.0955,0.1592,-0.9567,12,2026-08-01T14:26:19
-0.1,0.5,0.0,-0.0083,0.0224,-0.9924,12,2026-08-01T14:26:23
-0.3,1.0,0.0,-0.0142,0.0293,-0.9924,12,2026-08-01T14:26:24
-0.4,1.4,0.0,-0.0454,0.0345,-0.9969,12,2026-08-01T14:26:24
-0.5,1.9,0.0,-0.0070,0.0387,-0.9918,12,2026-08-01T14:26:25
-0.6,2.4,0.0,0.0175,0.0413,-0.9872,12,2026-08-01T14:26:25
-0.8,2.9,0.0,-0.0072,0.0507,-0.9910,12,2026-08-01T14:26:26
-0.9,3.4,0.0,-0.0069,0.0593,-0.9845,12,2026-08-01T14:26:26
-1.0,3.9,0.0,-0.0076,0.0650,-0.9751,12,2026-08-01T14:26:27
-1.2,4.3,0.0,-0.0101,0.0821,-0.9833,12,2026-08-01T14:26:27
-1.3,4.8,0.0,-0.0162,0.0854,-0.9882,12,2026-08-01T14:26:28
-1.4,5.3,0.0,-0.0217,0.0985,-0.9936,12,2026-08-01T14:26:28
-1.6,5.8,0.0,-0.0245,0.0983,-0.9866,12,2026-08-01T14:26:29
-1.7,6.3,0.0,-0.0287,0.1089,-0.9710,12,2026-08-01T14:26:30
-1.8,6.8,0.0,-0.0150,0.1174,-0.9691,12,2026-08-01T14:26:30
-1.9,7.2,0.0,-0.0215,0.1094,-0.9845,12,2026-08-01T14:26:31
-2.1,7.7,0.0,-0.0202,0.1500,-0.9747,12,2026-08-01T14:26:31
-2.2,8.2,0.0,-0.0219,0.1539,-0.9803,12,2026-08-01T14:26:32
-2.3,8.7,0.0,-0.0420,0.1488,-0.9759,12,2026-08-01T14:26:32
-2.5,9.2,0.0,-0.0185,0.1493,-0.9707,12,2026-08-01T14:26:33
-2.6,9.7,0.0,-0.0473,0.1570,-0.9723,12,2026-08-01T14:26:34
-2.7,10.1,0.0,-0.0600,0.1687,-0.9721,12,2026-08-01T14:26:34
-2.8,10.6,0.0,-0.0508,0.1822,-0.9798,12,2026-08-01T14:26:35
-3.0,11.1,0.0,-0.0242,0.1917,-0.9747,12,2026-08-01T14:26:35
-0.3,0.4,0.0,0.0023,0.0201,-0.9899,12,2026-08-01T14:26:38
-0.5,0.9,0.0,0.0307,-0.0076,-0.9915,12,2026-08-01T14:26:39
-0.8,1.3,0.0,-0.0385,0.0787,-0.9784,12,2026-08-01T14:26:40
-1.0,1.7,0.0,0.0148,0.0316,-0.9819,12,2026-08-01T14:26:40
-1.3,2.2,0.0,0.0253,0.0353,-0.9867,12,2026-08-01T14:26:41
-1.5,2.6,0.0,0.0406,0.0341,-0.9837,12,2026-08-01T14:26:41
-1.8,3.0,0.0,0.0233,0.0570,-0.9886,12,2026-08-01T14:26:42
-2.0,3.5,0.0,0.0282,0.0676,-0.9948,12,2026-08-01T14:26:42
-2.3,3.9,0.0,0.0315,0.0845,-0.9904,12,2026-08-01T14:26:43
-2.5,4.3,0.0,0.0332,0.0888,-0.9810,12,2026-08-01T14:26:43
-2.8,4.8,0.0,-0.0185,0.1423,-0.9784,12,2026-08-01T14:26:44
-3.0,5.2,0.0,0.1091,0.0931,-0.9896,12,2026-08-01T14:26:44
-3.3,5.6,0.0,0.0244,0.1059,-0.9834,12,2026-08-01T14:26:45
-3.5,6.1,0.0,0.0335,0.1115,-0.9855,12,2026-08-01T14:26:46
-3.8,6.5,0.0,0.0108,0.1240,-0.9913,12,2026-08-01T14:26:46
-4.0,6.9,0.0,-0.0002,0.1331,-0.9707,12,2026-08-01T14:26:47
-4.3,7.4,0.0,-0.0095,0.1503,-0.9819,12,2026-08-01T14:26:47
-4.5,7.8,0.0,0.0645,0.1576,-0.9834,12,2026-08-01T14:26:48
-4.8,8.2,0.0,-0.0583,0.1828,-0.9652,12,2026-08-01T14:26:48
-5.0,8.7,0.0,0.0314,0.1433,-0.9745,12,2026-08-01T14:26:49
-5.3,9.1,0.0,-0.0121,0.1915,-0.9731,12,2026-08-01T14:26:50
-5.5,9.5,0.0,0.0121,0.1830,-0.9705,12,2026-08-01T14:26:50
-5.8,10.0,0.0,-0.0415,0.1483,-0.9823,12,2026-08-01T14:26:51
-6.0,10.4,0.0,0.0046,0.2386,-0.9732,12,2026-08-01T14:26:51
-0.4,0.4,0.0,0.0203,0.0102,-0.9883,12,2026-08-01T14:26:54
-0.7,0.7,0.0,0.0326,0.0136,-0.9946,12,2026-08-01T14:26:55
-1.1,1.1,0.0,0.0012,0.0500,-0.9886,12,2026-08-01T14:26:56
-1.4,1.4,0.0,-0.1009,-0.0081,-0.9836,12,2026-08-01T14:26:56
-1.8,1.8,0.0,0.0313,0.0251,-0.9996,12,2026-08-01T14:26:57
-2.1,2.1,0.0,0.0654,0.0460,-0.9879,12,2026-08-01T14:26:57
-2.5,2.5,0.0,0.0148,0.0542,-0.9867,12,2026-08-01T14:26:58
-2.8,2.8,0.0,0.0839,0.0828,-0.9895,12,2026-08-01T14:26:58
-3.2,3.2,0.0,0.0207,0.0743,-0.9878,12,2026-08-01T14:26:59
-3.5,3.5,0.0,0.0819,0.0519,-0.9858,12,2026-08-01T14:26:59
-3.9,3.9,0.0,0.0006,0.0948,-0.9929,12,2026-08-01T14:27:00
-4.2,4.2,0.0,0.0410,0.1037,-0.9840,12,2026-08-01T14:27:00
-4.6,4.6,0.0,0.0281,0.1093,-0.9926,12,2026-08-01T14:27:01
-4.9,4.9,0.0,0.0303,0.1328,-0.9875,12,2026-08-01T14:27:02
-5.3,5.3,0.0,0.0294,0.1236,-0.9836,12,2026-08-01T14:27:02
-5.7,5.7,0.0,-0.0258,0.1547,-0.9917,12,2026-08-01T14:27:03
-6.0,6.0,0.0,0.0383,0.1536,-0.9844,12,2026-08-01T14:27:03
-6.4,6.4,0.0,-0.0331,0.1661,-0.9733,12,2026-08-01T14:27:04
-6.7,6.7,0.0,-0.0153,0.1807,-0.9633,12,2026-08-01T14:27:04
-7.1,7.1,0.0,0.0225,0.1674,-0.9806,12,2026-08-01T14:27:05
-7.4,7.4,0.0,0.0817,0.1836,-0.9659,12,2026-08-01T14:27:05
-7.8,7.8,0.0,0.0499,0.1989,-0.9826,12,2026-08-01T14:27:06
-8.1,8.1,0.0,0.0577,0.2133,-0.9691,12,2026-08-01T14:27:07
-8.5,8.5,0.0,0.0928,0.1663,-0.9678,12,2026-08-01T14:27:07
-8.8,8.8,0.0,0.0015,0.2042,-0.9701,12,2026-08-01T14:27:08
-9.2,9.2,0.0,0.0716,0.2312,-0.9652,12,2026-08-01T14:27:08
-9.5,9.5,0.0,0.1027,0.2795,-0.9561,12,2026-08-01T14:27:09
-0.4,0.3,0.0,0.0070,0.0125,-0.9907,12,2026-08-01T14:27:12
-0.9,0.5,0.0,0.0129,0.0288,-0.9809,12,2026-08-01T14:27:13
-1.3,0.8,0.0,0.0313,-0.0018,-0.9835,12,2026-08-01T14:27:13
-1.7,1.0,0.0,0.0182,0.0514,-0.9858,12,2026-08-01T14:27:14
-2.2,1.3,0.0,0.0135,0.0588,-0.9820,12,2026-08-01T14:27:14
-2.6,1.5,0.0,-0.0362,0.0001,-0.9943,12,2026-08-01T14:27:15
-3.0,1.8,0.0,0.0162,0.0735,-0.9854,12,2026-08-01T14:27:15
-3.5,2.0,0.0,0.0280,0.0663,-0.9978,12,2026-08-01T14:27:16
-3.9,2.3,0.0,0.0138,0.0896,-0.9871,12,2026-08-01T14:27:16
-4.3,2.5,0.0,0.0598,0.0793,-0.9912,12,2026-08-01T14:27:17
-4.8,2.8,0.0,0.0848,0.0907,-0.9854,12,2026-08-01T14:27:18
-5.2,3.0,0.0,0.0922,0.1204,-0.9854,12,2026-08-01T14:27:18
-5.6,3.3,0.0,0.0446,0.1318,-0.9722,12,2026-08-01T14:27:19
-6.1,3.5,0.0,0.0647,0.1403,-0.9789,12,2026-08-01T14:27:19
-6.5,3.8,0.0,0.0973,0.1187,-0.9729,12,2026-08-01T14:27:20
-6.9,4.0,0.0,0.1027,0.0966,-0.9740,12,2026-08-01T14:27:20
-7.4,4.3,0.0,0.1068,0.0644,-0.9803,12,2026-08-01T14:27:21
-7.8,4.5,0.0,0.0739,0.1237,-0.9653,12,2026-08-01T14:27:21
-8.2,4.8,0.0,0.0635,0.1382,-0.9735,12,2026-08-01T14:27:22
-8.7,5.0,0.0,0.1291,0.1468,-0.9766,12,2026-08-01T14:27:22
-9.1,5.3,0.0,0.0986,0.1661,-0.9740,12,2026-08-01T14:27:23
-9.5,5.5,0.0,0.0581,0.2225,-0.9696,12,2026-08-01T14:27:24
-10.0,5.8,0.0,0.1290,0.1955,-0.9594,12,2026-08-01T14:27:24
-10.4,6.0,0.0,0.1541,0.2328,-0.9787,12,2026-08-01T14:27:25
-10.8,6.3,0.0,0.4553,0.2515,-0.9685,12,2026-08-01T14:27:25
-11.3,6.5,0.0,0.1176,0.2371,-0.9617,12,2026-08-01T14:27:26
-11.7,6.8,0.0,0.1431,0.1944,-0.9649,12,2026-08-01T14:27:26
-12.1,7.0,0.0,0.0202,0.2013,-0.9511,12,2026-08-01T14:27:27
-12.6,7.3,0.0,0.0295,0.2450,-0.9506,12,2026-08-01T14:27:28
-13.0,7.5,0.0,0.1193,0.2543,-0.9613,12,2026-08-01T14:27:28
-13.4,7.8,0.0,0.1228,0.2523,-0.9728,12,2026-08-01T14:27:29
-13.9,8.0,0.0,0.1102,0.2066,-0.9579,12,2026-08-01T14:27:29
-0.5,0.1,0.0,0.0180,0.0074,-0.9737,12,2026-08-01T14:27:33
-1.0,0.3,0.0,0.0056,0.0614,-0.9844,12,2026-08-01T14:27:33
-1.4,0.4,0.0,0.0361,0.0246,-0.9915,12,2026-08-01T14:27:34
-1.9,0.5,0.0,0.0425,0.0286,-0.9882,12,2026-08-01T14:27:34
-2.4,0.6,0.0,0.0705,0.0369,-0.9880,12,2026-08-01T14:27:35
-2.9,0.8,0.0,0.0527,0.0465,-0.9983,12,2026-08-01T14:27:35
-3.4,0.9,0.0,0.0603,0.0416,-0.9842,12,2026-08-01T14:27:36
-3.9,1.0,0.0,0.0354,0.0798,-0.9881,12,2026-08-01T14:27:37
-4.3,1.2,0.0,0.0496,0.0697,-0.9771,12,2026-08-01T14:27:37
-4.8,1.3,0.0,0.0763,0.0975,-0.9825,12,2026-08-01T14:27:38
-5.3,1.4,0.0,0.0641,0.0780,-0.9721,12,2026-08-01T14:27:38
-5.8,1.6,0.0,0.1169,0.1228,-0.9989,12,2026-08-01T14:27:39
-6.3,1.7,0.0,0.0935,0.0839,-0.9786,12,2026-08-01T14:27:39
-6.8,1.8,0.0,0.0477,0.0768,-0.9893,12,2026-08-01T14:27:40
-7.2,1.9,0.0,0.0521,0.1124,-0.9857,12,2026-08-01T14:27:40
-7.7,2.1,0.0,0.1426,0.0892,-0.9791,12,2026-08-01T14:27:41
-8.2,2.2,0.0,0.0992,0.1409,-0.9823,12,2026-08-01T14:27:42
-8.7,2.3,0.0,0.1210,0.1021,-0.9819,12,2026-08-01T14:27:42
-9.2,2.5,0.0,0.0701,0.0731,-0.9756,12,2026-08-01T14:27:43
-9.7,2.6,0.0,0.1254,0.0877,-0.9823,12,2026-08-01T14:27:43
-10.1,2.7,0.0,0.2076,0.1433,-0.9718,12,2026-08-01T14:27:44
-10.6,2.8,0.0,0.2072,0.0985,-0.9652,12,2026-08-01T14:27:44
-11.1,3.0,0.0,0.0935,0.1661,-0.9571,12,2026-08-01T14:27:45
-11.6,3.1,0.0,0.1540,0.1611,-0.9625,12,2026-08-01T14:27:45
-12.1,3.2,0.0,0.2372,0.1365,-0.9618,12,2026-08-01T14:27:46
-12.6,3.4,0.0,0.1509,0.1611,-0.9742,12,2026-08-01T14:27:47
-0.5,-0.0,0.0,0.0317,-0.0023,-0.9884,12,2026-08-01T14:27:50
-1.0,-0.0,0.0,0.0939,-0.0037,-0.9792,12,2026-08-01T14:27:50
-1.5,-0.0,0.0,0.0506,0.0096,-0.9928,12,2026-08-01T14:27:51
-2.0,-0.0,0.0,-0.0318,0.0323,-0.9994,12,2026-08-01T14:27:52
-2.5,-0.0,0.0,0.0277,0.0245,-0.9917,12,2026-08-01T14:27:52
-3.0,-0.0,0.0,0.1293,0.0223,-0.9863,12,2026-08-01T14:27:53
-3.5,-0.0,0.0,0.0659,0.0503,-0.9893,12,2026-08-01T14:27:53
-4.0,-0.0,0.0,0.1127,0.0236,-0.9924,12,2026-08-01T14:27:54
-4.5,-0.0,0.0,0.0515,0.0455,-0.9817,12,2026-08-01T14:27:54
-5.0,-0.0,0.0,0.0628,0.0346,-0.9862,12,2026-08-01T14:27:55
-5.5,-0.0,0.0,0.0924,0.0259,-0.9833,12,2026-08-01T14:27:55
-6.0,-0.0,0.0,0.0963,0.0564,-0.9874,12,2026-08-01T14:27:56
-6.5,-0.0,0.0,0.1086,0.0772,-0.9883,12,2026-08-01T14:27:57
-7.0,-0.0,0.0,0.1754,0.0810,-0.9847,12,2026-08-01T14:27:57
-7.5,-0.0,0.0,0.1738,0.0982,-0.9761,12,2026-08-01T14:27:58
-8.0,-0.0,0.0,0.1270,0.0714,-0.9702,12,2026-08-01T14:27:58
-8.5,-0.0,0.0,0.1390,0.0737,-0.9731,12,2026-08-01T14:27:59
-9.0,-0.0,0.0,0.1324,0.0885,-0.9757,12,2026-08-01T14:27:59
-9.5,-0.0,0.0,0.1674,0.0746,-0.9739,12,2026-08-01T14:28:00
-10.0,-0.0,0.0,0.1801,0.0841,-0.9784,12,2026-08-01T14:28:00
-10.5,-0.0,0.0,0.2060,0.0599,-0.9762,12,2026-08-01T14:28:01
-11.0,-0.0,0.0,0.1584,0.1046,-0.9822,12,2026-08-01T14:28:02
-11.5,-0.0,0.0,0.1881,0.0773,-0.9833,12,2026-08-01T14:28:02
-12.0,-0.0,0.0,0.1833,0.1116,-0.9717,12,2026-08-01T14:28:03
-0.5,-0.1,0.0,0.0369,-0.0068,-0.9984,12,2026-08-01T14:28:06
-1.0,-0.3,0.0,0.0263,-0.0042,-0.9825,12,2026-08-01T14:28:07
-1.4,-0.4,0.0,0.0361,0.0035,-0.9774,12,2026-08-01T14:28:08
-1.9,-0.5,0.0,0.0201,0.0001,-0.9874,12,2026-08-01T14:28:08
-2.4,-0.6,0.0,0.0590,-0.0127,-0.9821,12,2026-08-01T14:28:09
-2.9,-0.8,0.0,0.0722,0.0055,-0.9895,12,2026-08-01T14:28:09
-3.4,-0.9,0.0,0.0889,0.0465,-0.9851,12,2026-08-01T14:28:10
-3.9,-1.0,0.0,0.0520,0.0059,-0.9942,12,2026-08-01T14:28:10
-4.3,-1.2,0.0,0.1254,0.0240,-0.9800,12,2026-08-01T14:28:11
-4.8,-1.3,0.0,0.1075,0.0319,-0.9881,12,2026-08-01T14:28:11
-5.3,-1.4,0.0,0.1102,0.0002,-0.9699,12,2026-08-01T14:28:12
-5.8,-1.6,0.0,0.1744,0.0835,-0.9810,12,2026-08-01T14:28:13
-6.3,-1.7,0.0,0.1421,0.0192,-0.9751,12,2026-08-01T14:28:13
-6.8,-1.8,0.0,0.1337,0.0264,-1.0034,12,2026-08-01T14:28:14
-7.2,-1.9,0.0,0.1349,0.0304,-0.9888,12,2026-08-01T14:28:14
-7.7,-2.1,0.0,0.1249,0.0028,-0.9905,12,2026-08-01T14:28:15
-8.2,-2.2,0.0,0.1578,0.0336,-0.9830,12,2026-08-01T14:28:15
-8.7,-2.3,0.0,0.1607,0.0416,-0.9629,12,2026-08-01T14:28:16
-9.2,-2.5,0.0,0.1556,0.0116,-0.9726,12,2026-08-01T14:28:16
-9.7,-2.6,0.0,0.1864,0.0294,-0.9723,12,2026-08-01T14:28:17
-10.1,-2.7,0.0,0.2382,0.0278,-0.9757,12,2026-08-01T14:28:18
-10.6,-2.8,0.0,0.2480,0.0848,-0.9639,12,2026-08-01T14:28:18
-11.1,-3.0,0.0,0.2111,0.0336,-0.9736,12,2026-08-01T14:28:19
-0.4,-0.3,0.0,0.0644,0.0288,-0.9921,12,2026-08-01T14:28:22
-0.9,-0.5,0.0,0.0423,-0.0094,-0.9932,12,2026-08-01T14:28:23
-1.3,-0.8,0.0,0.0957,-0.0550,-0.9902,12,2026-08-01T14:28:23
-1.7,-1.0,0.0,0.1358,0.0251,-0.9891,12,2026-08-01T14:28:24
-2.2,-1.2,0.0,0.1344,-0.0203,-0.9874,12,2026-08-01T14:28:24
-2.6,-1.5,0.0,0.0105,-0.0319,-0.9923,12,2026-08-01T14:28:25
-3.0,-1.7,0.0,0.1481,-0.0053,-0.9859,12,2026-08-01T14:28:25
-3.5,-2.0,0.0,0.1392,-0.0211,-0.9917,12,2026-08-01T14:28:26
-3.9,-2.2,0.0,0.0938,-0.0169,-0.9929,12,2026-08-01T14:28:27
-4.3,-2.5,0.0,0.1211,-0.0084,-0.9792,12,2026-08-01T14:28:27
-4.8,-2.7,0.0,0.0988,0.0051,-0.9757,12,2026-08-01T14:28:28
-5.2,-3.0,0.0,0.1088,-0.0143,-0.9797,12,2026-08-01T14:28:28
-5.6,-3.2,0.0,0.1225,-0.0268,-0.9904,12,2026-08-01T14:28:29
-6.1,-3.5,0.0,0.0988,0.0077,-0.9837,12,2026-08-01T14:28:29
-6.5,-3.7,0.0,0.1396,0.0111,-0.9713,12,2026-08-01T14:28:30
-6.9,-4.0,0.0,0.1609,-0.0133,-0.9724,12,2026-08-01T14:28:30
-7.4,-4.3,0.0,0.1650,-0.0134,-0.9747,12,2026-08-01T14:28:31
-7.8,-4.5,0.0,0.1736,0.0282,-0.9810,12,2026-08-01T14:28:32
-8.2,-4.8,0.0,0.1865,-0.0068,-0.9774,12,2026-08-01T14:28:32
-8.7,-5.0,0.0,0.2133,-0.0061,-0.9738,12,2026-08-01T14:28:33
-9.1,-5.3,0.0,0.2817,-0.0824,-0.9971,12,2026-08-01T14:28:33
-9.5,-5.5,0.0,0.0953,0.0129,-0.9666,12,2026-08-01T14:28:34
-10.0,-5.8,0.0,0.2237,-0.0102,-0.9649,12,2026-08-01T14:28:35
-0.4,-0.4,0.0,0.0296,-0.0046,-0.9886,12,2026-08-01T14:28:38
-0.7,-0.7,0.0,-0.0297,0.0243,-0.9671,12,2026-08-01T14:28:38
-1.1,-1.1,0.0,0.0501,-0.0192,-0.9939,12,2026-08-01T14:28:39
-1.4,-1.4,0.0,0.0538,-0.0201,-0.9838,12,2026-08-01T14:28:39
-1.8,-1.8,0.0,0.0755,0.0025,-0.9845,12,2026-08-01T14:28:40
-2.1,-2.1,0.0,0.0631,-0.0396,-0.9934,12,2026-08-01T14:28:40
-2.5,-2.5,0.0,0.0785,-0.0273,-0.9846,12,2026-08-01T14:28:41
-2.8,-2.8,0.0,0.0806,-0.0118,-0.9914,12,2026-08-01T14:28:41
-3.2,-3.2,0.0,0.0936,-0.0469,-0.9976,12,2026-08-01T14:28:42
-3.5,-3.5,0.0,0.1041,-0.0028,-0.9885,12,2026-08-01T14:28:43
-3.9,-3.9,0.0,0.0995,-0.0435,-0.9905,12,2026-08-01T14:28:43
-4.2,-4.2,0.0,0.0550,-0.0673,-0.9998,12,2026-08-01T14:28:44
-4.6,-4.6,0.0,0.0273,-0.0457,-0.9763,12,2026-08-01T14:28:44
-4.9,-4.9,0.0,0.1424,-0.0357,-0.9775,12,2026-08-01T14:28:45
-5.3,-5.3,0.0,0.1162,-0.0426,-0.9814,12,2026-08-01T14:28:45
-5.7,-5.7,0.0,0.1303,-0.0481,-0.9868,12,2026-08-01T14:28:46
-6.0,-6.0,0.0,0.1635,-0.0730,-0.9898,12,2026-08-01T14:28:46
-6.4,-6.4,0.0,0.2202,-0.0532,-0.9835,12,2026-08-01T14:28:47
-6.7,-6.7,0.0,0.1611,-0.0444,-0.9712,12,2026-08-01T14:28:48
-7.1,-7.1,0.0,0.1750,-0.0531,-0.9722,12,2026-08-01T14:28:48
-7.4,-7.4,0.0,0.2040,-0.0752,-0.9834,12,2026-08-01T14:28:49
-7.8,-7.8,0.0,0.1934,-0.0605,-0.9641,12,2026-08-01T14:28:49
-8.1,-8.1,0.0,0.1942,-0.0580,-0.9725,12,2026-08-01T14:28:50
-0.2,-0.4,0.0,0.0267,-0.0057,-0.9937,12,2026-08-01T14:28:54
-0.5,-0.9,0.0,0.0262,-0.0284,-0.9854,12,2026-08-01T14:28:54
-0.7,-1.3,0.0,0.0432,-0.0582,-0.9878,12,2026-08-01T14:28:55
-1.0,-1.7,0.0,0.0490,0.0079,-0.9849,12,2026-08-01T14:28:55
-1.2,-2.2,0.0,0.0806,0.0003,-0.9745,12,2026-08-01T14:28:56
-1.5,-2.6,0.0,0.0549,-0.0367,-0.9939,12,2026-08-01T14:28:56
-1.7,-3.0,0.0,0.0404,0.0099,-0.9758,12,2026-08-01T14:28:57
-2.0,-3.5,0.0,0.1401,-0.0289,-0.9979,12,2026-08-01T14:28:57
-2.2,-3.9,0.0,0.0974,-0.0477,-0.9751,12,2026-08-01T14:28:58
-2.5,-4.3,0.0,0.1152,-0.0530,-0.9806,12,2026-08-01T14:28:59
-2.7,-4.8,0.0,0.0980,-0.0460,-0.9893,12,2026-08-01T14:28:59
-3.0,-5.2,0.0,0.0490,-0.0802,-0.9842,12,2026-08-01T14:29:00
-3.2,-5.6,0.0,0.1006,-0.0555,-0.9914,12,2026-08-01T14:29:00
-3.5,-6.1,0.0,0.1260,-0.0913,-0.9809,12,2026-08-01T14:29:01
-3.7,-6.5,0.0,0.1056,-0.0490,-1.0011,12,2026-08-01T14:29:01
-4.0,-6.9,0.0,0.1378,-0.0833,-0.9880,12,2026-08-01T14:29:02
-4.2,-7.4,0.0,0.1219,-0.1292,-0.9856,12,2026-08-01T14:29:02
-4.5,-7.8,0.0,0.0979,-0.1165,-0.9855,12,2026-08-01T14:29:03
-4.7,-8.2,0.0,0.1492,-0.0916,-0.9811,12,2026-08-01T14:29:04
-5.0,-8.7,0.0,0.1422,-0.0853,-0.9788,12,2026-08-01T14:29:04
-5.2,-9.1,0.0,0.1919,-0.1119,-0.9747,12,2026-08-01T14:29:05
-5.5,-9.5,0.0,0.1707,-0.1082,-0.9766,12,2026-08-01T14:29:05
-5.7,-10.0,0.0,0.1891,-0.1191,-0.9532,12,2026-08-01T14:29:06
-0.1,-0.5,0.0,0.0252,-0.0111,-0.9900,12,2026-08-01T14:29:09
-0.3,-1.0,0.0,-0.0377,-0.0111,-0.9775,12,2026-08-01T14:29:10
-0.4,-1.4,0.0,0.2620,-0.0353,-0.9994,12,2026-08-01T14:29:10
-0.5,-1.9,0.0,0.0601,-0.0329,-0.9879,12,2026-08-01T14:29:11
-0.6,-2.4,0.0,0.0340,-0.0262,-0.9983,12,2026-08-01T14:29:11
-0.8,-2.9,0.0,0.0789,-0.0320,-0.9954,12,2026-08-01T14:29:12
-0.9,-3.4,0.0,0.0748,-0.0471,-0.9863,12,2026-08-01T14:29:12
-1.0,-3.9,0.0,0.1089,-0.0368,-0.9886,12,2026-08-01T14:29:13
-1.2,-4.3,0.0,0.1428,-0.0609,-0.9889,12,2026-08-01T14:29:13
-1.3,-4.8,0.0,0.1001,-0.0756,-0.9911,12,2026-08-01T14:29:14
-1.4,-5.3,0.0,0.1021,-0.0823,-0.9832,12,2026-08-01T14:29:14
-1.6,-5.8,0.0,0.1227,-0.0900,-0.9847,12,2026-08-01T14:29:15
-1.7,-6.3,0.0,0.1082,-0.0683,-0.9745,12,2026-08-01T14:29:16
-1.8,-6.8,0.0,0.1104,-0.0846,-0.9799,12,2026-08-01T14:29:16
-1.9,-7.2,0.0,0.1368,-0.0958,-0.9836,12,2026-08-01T14:29:17
-2.1,-7.7,0.0,0.0979,-0.0933,-0.9867,12,2026-08-01T14:29:17
-2.2,-8.2,0.0,0.0695,-0.1090,-0.9736,12,2026-08-01T14:29:18
-2.3,-8.7,0.0,0.1092,-0.1088,-0.9817,12,2026-08-01T14:29:18
-2.5,-9.2,0.0,0.1091,-0.1144,-0.9795,12,2026-08-01T14:29:19
-2.6,-9.7,0.0,0.0422,-0.1217,-0.9582,12,2026-08-01T14:29:19
-2.7,-10.1,0.0,0.1292,-0.1293,-0.9715,12,2026-08-01T14:29:20
-2.8,-10.6,0.0,0.0852,-0.1372,-0.9625,12,2026-08-01T14:29:21
-3.0,-11.1,0.0,0.1391,-0.1251,-0.9688,12,2026-08-01T14:29:21
-3.1,-11.6,0.0,0.1699,-0.1403,-0.9747,12,2026-08-01T14:29:22
-3.2,-12.1,0.0,0.1506,-0.1508,-0.9743,12,2026-08-01T14:29:22
-3.4,-12.6,0.0,0.1431,-0.1574,-0.9709,12,2026-08-01T14:29:23
0.0,-0.5,0.0,0.0320,-0.0131,-0.9884,12,2026-08-01T14:29:26
0.0,-1.0,0.0,0.0321,-0.0300,-0.9937,12,2026-08-01T14:29:27
0.0,-1.5,0.0,0.0309,-0.0550,-0.9861,12,2026-08-01T14:29:27
0.0,-2.0,0.0,0.0235,-0.0405,-0.9848,12,2026-08-01T14:29:28
0.0,-2.5,0.0,0.0065,-0.0479,-0.9875,12,2026-08-01T14:29:28
0.0,-3.0,0.0,0.1277,-0.0157,-0.9825,12,2026-08-01T14:29:29
0.0,-3.5,0.0,0.0754,-0.0267,-0.9909,12,2026-08-01T14:29:29
0.0,-4.0,0.0,-0.2530,-0.1706,-0.9758,12,2026-08-01T14:29:30
0.0,-4.5,0.0,0.0810,-0.0526,-0.9845,12,2026-08-01T14:29:30
0.0,-5.0,0.0,0.0997,-0.0618,-0.9967,12,2026-08-01T14:29:31
0.0,-5.5,0.0,0.0732,-0.0982,-0.9886,12,2026-08-01T14:29:31
0.0,-6.0,0.0,0.0684,-0.1062,-0.9806,12,2026-08-01T14:29:32
0.0,-6.5,0.0,0.0682,-0.0920,-0.9831,12,2026-08-01T14:29:33
0.0,-7.0,0.0,0.1069,-0.1111,-0.9726,12,2026-08-01T14:29:33
0.0,-7.5,0.0,0.0886,-0.1151,-0.9792,12,2026-08-01T14:29:34
0.0,-8.0,0.0,0.0734,-0.1271,-0.9840,12,2026-08-01T14:29:34
0.0,-8.5,0.0,0.0458,-0.1490,-0.9878,12,2026-08-01T14:29:35
0.0,-9.0,0.0,0.1015,-0.1472,-0.9797,12,2026-08-01T14:29:35
0.0,-9.5,0.0,0.1193,-0.1370,-0.9684,12,2026-08-01T14:29:36
0.0,-10.0,0.0,0.0287,-0.1734,-0.9874,12,2026-08-01T14:29:36
0.0,-10.5,0.0,0.1027,-0.1892,-0.9821,12,2026-08-01T14:29:37
0.0,-11.0,0.0,0.0998,-0.1551,-0.9746,12,2026-08-01T14:29:37
0.0,-11.5,0.0,0.2666,-0.1102,-0.9529,12,2026-08-01T14:29:38
0.0,-12.0,0.0,0.0462,-0.1467,-0.9553,12,2026-08-01T14:29:39
0.0,-12.5,0.0,0.1409,-0.1769,-0.9669,12,2026-08-01T14:29:39
0.0,-13.0,0.0,0.1136,-0.1866,-0.9643,12,2026-08-01T14:29:40
0.0,-13.5,0.0,0.1513,-0.2155,-0.9630,12,2026-08-01T14:29:40
0.0,-14.0,0.0,0.1274,-0.2080,-0.9577,12,2026-08-01T14:29:41
0.0,-14.5,0.0,0.0816,-0.2194,-0.9534,12,2026-08-01T14:29:41
0.0,-15.0,0.0,0.1206,-0.2285,-0.9524,12,2026-08-01T14:29:42
0.0,-15.5,0.0,0.1200,-0.2131,-0.9558,12,2026-08-01T14:29:43
0.0,-16.0,0.0,0.0599,-0.2869,-0.9562,12,2026-08-01T14:29:43
0.0,-16.5,0.0,0.1628,-0.2673,-0.9041,12,2026-08-01T14:29:44
0.1,-0.5,0.0,0.0035,-0.0021,-0.9934,12,2026-08-01T14:29:47
0.3,-1.0,0.0,-0.0452,0.0184,-1.0031,12,2026-08-01T14:29:48
0.4,-1.4,0.0,0.0139,-0.0159,-0.9876,12,2026-08-01T14:29:49
0.5,-1.9,0.0,-0.0209,0.0007,-0.9894,12,2026-08-01T14:29:49
0.6,-2.4,0.0,-0.0296,-0.0247,-0.9909,12,2026-08-01T14:29:50
0.8,-2.9,0.0,-0.0364,-0.0181,-0.9943,12,2026-08-01T14:29:50
0.9,-3.4,0.0,0.0298,-0.0437,-0.9904,12,2026-08-01T14:29:51
1.0,-3.9,0.0,0.0774,-0.0154,-0.9899,12,2026-08-01T14:29:51
1.2,-4.3,0.0,0.0278,-0.0653,-0.9875,12,2026-08-01T14:29:52
1.3,-4.8,0.0,0.0239,-0.0750,-0.9815,12,2026-08-01T14:29:52
1.4,-5.3,0.0,0.0257,-0.0925,-0.9842,12,2026-08-01T14:29:53
1.6,-5.8,0.0,0.0214,-0.0778,-0.9895,12,2026-08-01T14:29:54
1.7,-6.3,0.0,0.0184,-0.0938,-0.9885,12,2026-08-01T14:29:54
1.8,-6.8,0.0,0.0307,-0.1068,-0.9790,12,2026-08-01T14:29:55
1.9,-7.2,0.0,-0.4092,0.0336,-0.9357,12,2026-08-01T14:29:55
2.1,-7.7,0.0,-0.0826,-0.2000,-0.9897,12,2026-08-01T14:29:56
2.2,-8.2,0.0,-0.0337,-0.1105,-0.9738,12,2026-08-01T14:29:56
2.3,-8.7,0.0,0.1211,-0.0986,-0.9956,12,2026-08-01T14:29:57
2.5,-9.2,0.0,0.0513,-0.1414,-0.9681,12,2026-08-01T14:29:57
2.6,-9.7,0.0,0.1214,0.0695,-0.9943,12,2026-08-01T14:29:58
2.7,-10.1,0.0,0.0558,-0.2163,-0.9781,12,2026-08-01T14:29:59
2.8,-10.6,0.0,0.1216,-0.1727,-0.9902,12,2026-08-01T14:29:59
3.0,-11.1,0.0,0.0588,-0.2119,-0.9813,12,2026-08-01T14:30:00
3.1,-11.6,0.0,0.0644,-0.1758,-0.9745,12,2026-08-01T14:30:00
3.2,-12.1,0.0,0.0972,-0.1353,-0.9442,12,2026-08-01T14:30:01
3.4,-12.6,0.0,0.0455,-0.2069,-0.9599,12,2026-08-01T14:30:01
0.2,-0.4,0.0,-0.0031,0.0012,-0.9896,12,2026-08-01T14:30:05
0.5,-0.9,0.0,0.0093,-0.0070,-0.9919,12,2026-08-01T14:30:05
0.7,-1.3,0.0,-0.0016,-0.0273,-0.9905,12,2026-08-01T14:30:06
1.0,-1.7,0.0,0.0393,-0.0144,-0.9917,12,2026-08-01T14:30:06
1.2,-2.2,0.0,0.0096,-0.0459,-0.9847,12,2026-08-01T14:30:07
1.5,-2.6,0.0,0.0209,-0.0313,-0.9935,12,2026-08-01T14:30:07
1.7,-3.0,0.0,0.0072,-0.0476,-0.9936,12,2026-08-01T14:30:08
2.0,-3.5,0.0,0.0317,-0.0596,-0.9865,12,2026-08-01T14:30:09
2.2,-3.9,0.0,0.0073,-0.1111,-0.9909,12,2026-08-01T14:30:09
2.5,-4.3,0.0,-0.0179,-0.0587,-0.9898,12,2026-08-01T14:30:10
2.7,-4.8,0.0,0.0215,-0.0691,-0.9838,12,2026-08-01T14:30:10
3.0,-5.2,0.0,0.0583,-0.0869,-0.9881,12,2026-08-01T14:30:11
3.2,-5.6,0.0,0.0120,-0.1001,-0.9854,12,2026-08-01T14:30:11
3.5,-6.1,0.0,0.0001,-0.1029,-0.9711,12,2026-08-01T14:30:12
3.7,-6.5,0.0,0.0148,-0.1128,-0.9884,12,2026-08-01T14:30:12
4.0,-6.9,0.0,0.0271,-0.1258,-0.9781,12,2026-08-01T14:30:13
4.2,-7.4,0.0,0.0045,-0.1144,-0.9719,12,2026-08-01T14:30:14
4.5,-7.8,0.0,0.0024,-0.1427,-0.9858,12,2026-08-01T14:30:14
4.7,-8.2,0.0,0.0036,-0.1463,-0.9773,12,2026-08-01T14:30:15
5.0,-8.7,0.0,-0.0015,-0.1594,-0.9683,12,2026-08-01T14:30:15
5.2,-9.1,0.0,0.0046,-0.1584,-0.9771,12,2026-08-01T14:30:16
5.5,-9.5,0.0,0.0046,-0.1902,-0.9777,12,2026-08-01T14:30:16
5.7,-10.0,0.0,0.0048,-0.1799,-0.9731,12,2026-08-01T14:30:17
0.4,-0.4,0.0,-0.0086,-0.0138,-0.9816,12,2026-08-01T14:30:20
0.7,-0.7,0.0,0.0189,0.0184,-0.9918,12,2026-08-01T14:30:21
1.1,-1.1,0.0,-0.0161,-0.0469,-1.0014,12,2026-08-01T14:30:21
1.4,-1.4,0.0,0.0169,-0.0445,-0.9864,12,2026-08-01T14:30:22
1.8,-1.8,0.0,-0.0123,-0.0438,-0.9815,12,2026-08-01T14:30:22
2.1,-2.1,0.0,-0.0037,-0.0599,-0.9988,12,2026-08-01T14:30:23
2.5,-2.5,0.0,-0.0634,-0.0439,-0.9896,12,2026-08-01T14:30:23
2.8,-2.8,0.0,-0.0339,-0.0566,-0.9882,12,2026-08-01T14:30:24
3.2,-3.2,0.0,-0.0156,-0.0519,-0.9950,12,2026-08-01T14:30:25
3.5,-3.5,0.0,-0.0314,-0.0855,-0.9882,12,2026-08-01T14:30:25
3.9,-3.9,0.0,-0.0710,-0.1139,-0.9891,12,2026-08-01T14:30:26
4.2,-4.2,0.0,-0.0380,-0.0819,-0.9839,12,2026-08-01T14:30:26
4.6,-4.6,0.0,-0.0376,-0.1079,-0.9725,12,2026-08-01T14:30:27
4.9,-4.9,0.0,-0.0400,-0.1145,-0.9746,12,2026-08-01T14:30:27
5.3,-5.3,0.0,-0.0644,-0.1080,-0.9820,12,2026-08-01T14:30:28
5.7,-5.7,0.0,-0.0775,-0.1212,-0.9689,12,2026-08-01T14:30:29
6.0,-6.0,0.0,-0.0718,-0.1259,-0.9858,12,2026-08-01T14:30:29
6.4,-6.4,0.0,-0.0430,-0.1335,-0.9772,12,2026-08-01T14:30:30
6.7,-6.7,0.0,-0.0269,-0.1469,-0.9761,12,2026-08-01T14:30:30
7.1,-7.1,0.0,-0.0385,-0.1513,-0.9810,12,2026-08-01T14:30:31
7.4,-7.4,0.0,-0.0811,-0.1671,-0.9742,12,2026-08-01T14:30:31
7.8,-7.8,0.0,-0.1406,-0.1731,-0.9761,12,2026-08-01T14:30:32
8.1,-8.1,0.0,-0.0410,-0.1812,-0.9737,12,2026-08-01T14:30:33
0.4,-0.3,0.0,-0.0123,-0.0166,-0.9898,12,2026-08-01T14:30:36
0.9,-0.5,0.0,-0.0760,-0.0159,-0.9875,12,2026-08-01T14:30:37
1.3,-0.8,0.0,-0.0123,-0.0533,-0.9806,12,2026-08-01T14:30:38
1.7,-1.0,0.0,-0.0271,-0.0270,-0.9919,12,2026-08-01T14:30:38
2.2,-1.3,0.0,-0.0316,-0.0365,-0.9882,12,2026-08-01T14:30:39
2.6,-1.5,0.0,0.0190,-0.0442,-0.9947,12,2026-08-01T14:30:39
3.0,-1.8,0.0,-0.0062,-0.0420,-0.9896,12,2026-08-01T14:30:40
3.5,-2.0,0.0,-0.0388,-0.0348,-0.9881,12,2026-08-01T14:30:40
3.9,-2.3,0.0,-0.1125,-0.0728,-0.9856,12,2026-08-01T14:30:41
4.3,-2.5,0.0,0.0017,-0.0642,-0.9880,12,2026-08-01T14:30:41
4.8,-2.8,0.0,-0.0542,-0.0621,-0.9798,12,2026-08-01T14:30:42
5.2,-3.0,0.0,-0.0633,-0.0779,-0.9837,12,2026-08-01T14:30:43
5.6,-3.3,0.0,-0.0365,-0.1069,-0.9966,12,2026-08-01T14:30:43
6.1,-3.5,0.0,-0.0766,-0.1455,-1.0012,12,2026-08-01T14:30:44
6.5,-3.8,0.0,-0.0061,-0.0907,-0.9824,12,2026-08-01T14:30:44
6.9,-4.0,0.0,-0.0990,-0.1090,-0.9822,12,2026-08-01T14:30:45
7.4,-4.3,0.0,-0.0836,-0.1329,-0.9772,12,2026-08-01T14:30:45
7.8,-4.5,0.0,-0.1209,-0.1195,-0.9842,12,2026-08-01T14:30:46
8.2,-4.8,0.0,-0.0847,-0.1292,-0.9783,12,2026-08-01T14:30:46
8.7,-5.0,0.0,-0.1089,-0.1388,-0.9696,12,2026-08-01T14:30:47
9.1,-5.3,0.0,-0.0986,-0.1533,-0.9684,12,2026-08-01T14:30:48
9.5,-5.5,0.0,-0.0804,-0.1493,-0.9821,12,2026-08-01T14:30:48
10.0,-5.8,0.0,-0.1413,-0.1479,-0.9918,12,2026-08-01T14:30:49
0.5,-0.1,0.0,-0.0067,-0.0066,-0.9933,12,2026-08-01T14:30:52
1.0,-0.3,0.0,-0.0066,-0.0160,-0.9867,12,2026-08-01T14:30:53
1.4,-0.4,0.0,-0.0399,-0.0081,-0.9942,12,2026-08-01T14:30:53
1.9,-0.5,0.0,-0.0679,-0.0280,-0.9745,12,2026-08-01T14:30:54
2.4,-0.6,0.0,-0.0597,-0.0326,-0.9888,12,2026-08-01T14:30:54
2.9,-0.8,0.0,-0.1274,0.0049,-0.9795,12,2026-08-01T14:30:55
3.4,-0.9,0.0,-0.0563,-0.0345,-0.9861,12,2026-08-01T14:30:55
3.9,-1.0,0.0,-0.0950,-0.0089,-0.9823,12,2026-08-01T14:30:56
4.3,-1.2,0.0,-0.0910,-0.0585,-0.9871,12,2026-08-01T14:30:56
4.8,-1.3,0.0,-0.1168,-0.0806,-0.9916,12,2026-08-01T14:30:57
5.3,-1.4,0.0,-0.0774,-0.0632,-0.9832,12,2026-08-01T14:30:58
5.8,-1.6,0.0,-0.0647,-0.0637,-0.9800,12,2026-08-01T14:30:58
6.3,-1.7,0.0,-0.0865,-0.0818,-0.9783,12,2026-08-01T14:30:59
6.8,-1.8,0.0,-0.1407,-0.0777,-0.9816,12,2026-08-01T14:30:59
7.2,-1.9,0.0,-0.1000,-0.0723,-0.9803,12,2026-08-01T14:31:00
7.7,-2.1,0.0,-0.0514,-0.0991,-0.9884,12,2026-08-01T14:31:00
8.2,-2.2,0.0,0.0043,-0.1125,-0.9821,12,2026-08-01T14:31:01
8.7,-2.3,0.0,-0.1112,-0.0968,-0.9718,12,2026-08-01T14:31:01
9.2,-2.5,0.0,-0.1252,-0.0503,-0.9777,12,2026-08-01T14:31:02
9.7,-2.6,0.0,-0.0994,-0.1151,-0.9799,12,2026-08-01T14:31:03
10.1,-2.7,0.0,-0.1347,-0.0978,-0.9791,12,2026-08-01T14:31:03
10.6,-2.8,0.0,-0.1031,-0.1141,-0.9802,12,2026-08-01T14:31:04
11.1,-3.0,0.0,-0.1459,-0.1384,-0.9620,12,2026-08-01T14:31:04
